time,ax,ay,az,atotal
0.016393184661865234,-0.12,0.17,-0.4,0.45
0.017097949981689453,-0.22,0.12,0.0,0.25
0.025037050247192383,-0.21,0.04,0.0,0.21
0.0352630615234375,-0.1,0.02,-0.1,0.14
0.044976234436035156,-0.01,-0.08,-0.03,0.08
0.055481910705566406,-0.11,-0.06,0.05,0.13
0.06526708602905273,-0.17,-0.01,0.09,0.19
0.0751800537109375,-0.14,0.01,-0.06,0.15
0.08563709259033203,-0.19,0.01,-0.04,0.19
0.09534120559692383,-0.21,-0.02,0.1,0.23
0.10531091690063477,-0.18,0.01,0.09,0.2
0.11527490615844727,-0.2,0.05,-0.02,0.2
0.1251392364501953,-0.17,0.05,-0.15,0.23
0.13551807403564453,-0.15,0.07,-0.22,0.27
0.14499711990356445,-0.16,-0.03,-0.3,0.34
0.15516424179077148,-0.11,-0.02,-0.52,0.53
0.16503405570983887,-0.17,0.05,-0.43,0.46
0.17508792877197266,-0.16,0.01,-0.25,0.29
0.1853961944580078,-0.2,-0.07,-0.15,0.25
0.19489312171936035,-0.16,-0.03,-0.07,0.17
0.20496225357055664,-0.03,0.03,-0.17,0.17
0.2149372100830078,-0.05,0.01,-0.23,0.23
0.22472000122070312,-0.06,0.02,-0.27,0.27
0.23478007316589355,-0.07,0.02,-0.28,0.28
0.2448749542236328,-0.08,0.01,-0.28,0.29
0.2547340393066406,0.07,-0.06,-0.1,0.13
0.26474618911743164,-0.24,-0.19,0.02,0.3
0.27451205253601074,-0.27,0.38,-0.43,0.63
0.284635066986084,-0.34,0.24,-0.24,0.48
0.29465723037719727,-0.2,-0.03,-0.15,0.25
0.3047020435333252,-0.15,-0.06,-0.09,0.18
0.3146800994873047,-0.14,0.04,-0.19,0.23
0.3245811462402344,-0.06,0.09,-0.25,0.27
0.33437013626098633,-0.08,-0.06,-0.22,0.24
0.34432315826416016,-0.21,0.13,-0.39,0.46
0.3544440269470215,-0.26,0.19,-0.3,0.44
0.3643951416015625,-0.2,-0.04,-0.22,0.3
0.3742361068725586,-0.15,-0.04,-0.19,0.24
0.3845560550689697,-0.16,0.04,-0.19,0.25
0.3942680358886719,-0.13,0.04,-0.2,0.24
0.40424489974975586,-0.1,0.02,-0.16,0.18
0.4142289161682129,-0.13,0.02,-0.13,0.18
0.42415523529052734,-0.13,0.03,-0.12,0.17
0.43411803245544434,-0.11,0.01,-0.09,0.14
0.44402313232421875,-0.14,0.01,-0.08,0.16
0.4543600082397461,-0.16,-0.01,-0.11,0.19
0.46419715881347656,-0.17,0.0,-0.08,0.18
0.47396206855773926,-0.15,-0.04,-0.03,0.15
0.48429203033447266,-0.09,-0.04,0.02,0.1
0.4941139221191406,-0.06,-0.03,-0.01,0.06
0.5040991306304932,-0.1,-0.01,-0.04,0.1
0.5139679908752441,-0.08,0.02,-0.13,0.15
0.523888111114502,-0.09,-0.01,-0.15,0.17
0.5338070392608643,-0.11,-0.01,-0.11,0.15
0.543889045715332,-0.08,0.03,-0.13,0.15
0.5538802146911621,-0.08,-0.01,-0.1,0.12
0.5638389587402344,-0.1,-0.03,-0.05,0.11
0.5736322402954102,-0.1,-0.02,-0.06,0.11
0.5838842391967773,-0.09,-0.01,-0.09,0.12
0.5936241149902344,-0.12,0.04,-0.13,0.18
0.6036241054534912,-0.11,0.01,-0.14,0.17
0.6136980056762695,-0.1,0.04,-0.21,0.23
0.6235971450805664,-0.14,0.07,-0.24,0.28
0.6336250305175781,-0.18,0.03,-0.2,0.27
0.6434950828552246,-0.2,0.02,-0.18,0.26
0.6535892486572266,-0.17,0.05,-0.21,0.27
0.6635100841522217,-0.11,0.09,-0.29,0.32
0.6734099388122559,-0.11,0.07,-0.33,0.35
0.6836810111999512,-0.12,0.03,-0.3,0.32
0.6933631896972656,-0.15,0.05,-0.31,0.34
0.7033250331878662,-0.18,0.06,-0.28,0.33
0.7133769989013672,-0.2,0.05,-0.2,0.28
0.7232940196990967,-0.22,0.0,-0.1,0.24
0.7333190441131592,-0.16,0.0,-0.17,0.23
0.7431731224060059,-0.1,0.01,-0.31,0.32
0.7531490325927734,-0.07,-0.01,-0.31,0.31
0.7633399963378906,-0.02,0.0,-0.26,0.26
0.7731690406799316,0.05,0.07,-0.38,0.38
0.7832860946655273,0.06,0.01,-0.56,0.56
0.7930359840393066,0.01,0.01,-0.56,0.56
0.8030540943145752,-0.08,0.04,-0.43,0.43
0.8130490779876709,-0.12,0.04,-0.36,0.38
0.8229811191558838,-0.12,0.06,-0.29,0.31
0.8330092430114746,0.0,-0.01,-0.23,0.23
0.842994213104248,0.15,-0.11,-0.3,0.35
0.8529129028320312,0.24,-0.15,-0.19,0.34
0.862861156463623,0.15,-0.22,-0.26,0.37
0.8728020191192627,0.25,-0.11,-0.56,0.62
0.8829970359802246,0.3,-0.09,-0.52,0.6
0.8927130699157715,0.34,-0.23,-0.58,0.71
0.902885913848877,0.31,-0.31,-0.61,0.75
0.9128842353820801,0.29,-0.32,-0.53,0.68
0.9227151870727539,0.25,-0.37,-0.43,0.61
0.9327149391174316,0.54,-0.78,-0.57,1.1
0.9427289962768555,0.83,-1.22,-0.87,1.71
0.9525580406188965,0.97,-1.1,-1.17,1.87
0.9628081321716309,1.15,-0.91,-1.38,2.01
0.9724769592285156,1.04,-0.61,-1.2,1.7
0.9825460910797119,0.42,-0.08,-0.34,0.54
0.992664098739624,-0.4,0.54,0.81,1.05
1.002601146697998,-0.97,1.06,1.28,1.92
1.0124101638793945,-1.28,1.04,0.92,1.88
1.02252197265625,-1.36,0.81,0.39,1.63
1.0324270725250244,-1.15,0.5,-0.17,1.26
1.0422401428222656,-0.81,0.26,-0.77,1.14
1.0523271560668945,-0.33,-0.36,-1.0,1.11
1.0622639656066895,0.18,-0.73,-1.02,1.26
1.0721540451049805,0.51,-0.77,-0.64,1.12
1.082334041595459,0.69,-0.46,-0.39,0.91
1.0922091007232666,0.74,-0.23,-0.43,0.88
1.1021652221679688,0.35,-0.04,-0.44,0.56
1.1121981143951416,-0.06,0.16,-0.44,0.47
1.1222000122070312,-0.13,0.22,-0.5,0.56
1.132120132446289,-0.17,0.13,-0.49,0.53
1.1420822143554688,-0.36,0.09,-0.6,0.7
1.1521010398864746,-0.34,0.15,-0.76,0.84
1.162135124206543,-0.3,0.34,-0.62,0.76
1.1718990802764893,-0.49,0.5,-0.59,0.91
1.1820220947265625,-0.83,0.49,-0.82,1.26
1.1919100284576416,-0.92,0.64,-0.84,1.4
1.2019340991973877,-0.86,0.46,-0.62,1.15
1.211745023727417,-0.75,0.12,-0.48,0.89
1.222149133682251,-0.65,0.12,-0.32,0.73
1.2318339347839355,-0.58,0.22,-0.21,0.65
1.2418150901794434,-0.44,0.06,-0.41,0.6
1.2517189979553223,-0.28,-0.3,-0.42,0.58
1.2616450786590576,-0.15,-0.09,-0.04,0.17
1.2715530395507812,-0.2,0.1,0.05,0.22
1.28165602684021,-0.19,-0.03,-0.15,0.24
1.2914719581604004,-0.12,-0.2,-0.32,0.39
1.3015809059143066,0.04,-0.36,-0.48,0.6
1.311392068862915,0.29,-0.57,-0.76,0.99
1.3215270042419434,0.47,-0.65,-1.02,1.29
1.3315749168395996,0.51,-0.57,-1.02,1.27
1.341433048248291,0.53,-0.61,-0.71,1.07
1.351412057876587,0.38,-0.97,-0.52,1.16
1.3613760471343994,0.23,-1.11,-0.42,1.2
1.3713159561157227,-0.06,-1.44,-0.51,1.52
1.3814120292663574,-0.13,-1.72,-0.49,1.79
1.3913159370422363,-0.05,-1.92,-0.19,1.93
1.4012432098388672,-0.13,-2.29,-0.07,2.29
1.411067008972168,-0.27,-2.61,-0.16,2.62
1.4212851524353027,-0.1,-2.47,-0.3,2.49
1.4311490058898926,0.59,-1.87,-0.26,1.97
1.4410219192504883,0.83,-1.44,-0.14,1.66
1.4512851238250732,1.0,-1.73,0.21,2.0
1.4611501693725586,1.19,-1.95,0.05,2.28
1.4711570739746094,0.83,-1.93,-0.22,2.11
1.4811251163482666,0.3,-2.02,-0.27,2.05
1.490997076034546,-0.42,-3.12,-0.44,3.17
1.5010271072387695,-0.68,-3.83,-1.17,4.06
1.510869026184082,-0.82,-3.4,-0.75,3.57
1.521040916442871,-1.02,-2.58,-0.05,2.77
1.5309271812438965,-1.29,-1.75,0.11,2.17
1.5408401489257812,-1.47,-1.2,-0.18,1.9
1.550997018814087,-1.43,-0.93,-0.41,1.75
1.560784101486206,-1.32,-0.85,-0.6,1.68
1.570688247680664,-1.33,-0.77,-0.8,1.73
1.5807209014892578,-1.28,-0.59,-0.87,1.65
1.590503215789795,-0.68,-0.14,-0.72,1.0
1.6006479263305664,0.3,0.52,-0.77,0.97
1.6104531288146973,0.44,1.12,-0.67,1.37
1.6207919120788574,0.22,0.8,0.37,0.9
1.6306729316711426,-0.2,0.35,0.67,0.78
1.6406280994415283,-0.54,0.6,0.09,0.81
1.650604248046875,-0.37,0.85,0.22,0.95
1.6605300903320312,-0.3,1.0,0.65,1.22
1.6704349517822266,-0.33,1.21,0.69,1.43
1.6804931163787842,-0.41,1.26,0.85,1.57
1.6903560161590576,-0.54,1.28,1.21,1.84
1.7004971504211426,-0.76,1.2,1.44,2.02
1.7103991508483887,-0.81,1.19,1.66,2.19
1.720454216003418,-0.83,1.13,1.67,2.18
1.7302160263061523,-0.61,1.17,1.56,2.04
1.740220069885254,-0.51,1.26,1.34,1.9
1.7502899169921875,-0.3,1.14,1.01,1.55
1.7600910663604736,-0.11,0.96,0.9,1.32
1.7700719833374023,-0.24,1.02,1.0,1.44
1.7800841331481934,-0.49,1.09,0.98,1.54
1.7901129722595215,-0.61,1.18,0.96,1.63
1.8002519607543945,-0.86,1.04,1.02,1.69
1.8101181983947754,-0.84,1.03,0.99,1.65
1.8200371265411377,-0.92,1.07,0.95,1.7
1.8299531936645508,-1.03,1.08,1.02,1.8
1.8399500846862793,-0.99,0.95,0.99,1.69
1.8500850200653076,-0.98,1.01,0.87,1.65
1.8599181175231934,-0.94,1.07,0.91,1.69
1.8698439598083496,-1.01,0.75,1.03,1.62
1.8798141479492188,-0.89,0.61,0.97,1.45
1.8898282051086426,-0.81,0.76,0.91,1.43
1.899914026260376,-0.66,0.7,0.82,1.26
1.9098172187805176,-0.55,0.65,0.84,1.19
1.9197471141815186,-0.74,0.44,0.75,1.14
1.9296941757202148,-0.66,0.49,0.7,1.07
1.939621925354004,-0.55,0.68,0.53,1.02
1.9497370719909668,-0.47,0.6,0.38,0.85
1.9595320224761963,-0.39,0.51,0.33,0.72
1.9694581031799316,-0.24,0.55,0.3,0.67
1.9797191619873047,-0.13,0.52,0.23,0.58
1.9894521236419678,0.02,0.39,0.19,0.43
1.9995999336242676,0.11,0.32,0.21,0.39
2.0093770027160645,0.07,0.3,0.03,0.3
2.019533157348633,-0.03,0.29,-0.11,0.31
2.0293569564819336,-0.15,0.19,-0.18,0.3
2.0393362045288086,-0.09,0.39,-0.29,0.49
2.0492682456970215,-0.08,0.39,-0.41,0.57
2.059195041656494,0.07,0.3,-0.33,0.45
2.069216251373291,-0.01,0.11,-0.27,0.29
2.0792620182037354,-0.1,0.04,-0.22,0.24
2.0893280506134033,-0.12,0.11,-0.2,0.25
2.099250078201294,-0.09,0.19,-0.22,0.3
2.1092960834503174,-0.05,0.11,-0.28,0.3
2.1193630695343018,0.03,0.0,-0.13,0.13
2.129045009613037,0.1,0.04,-0.01,0.1
2.1390700340270996,0.15,0.01,-0.03,0.15
2.149261951446533,0.21,-0.02,-0.08,0.22
2.1589488983154297,0.2,0.03,-0.15,0.25
2.1684370040893555,0.18,0.07,-0.11,0.22
2.1783571243286133,0.17,0.08,-0.04,0.19
2.1881799697875977,0.16,0.12,0.05,0.2
2.198162078857422,0.17,0.17,0.07,0.25
2.2089309692382812,0.07,0.08,0.09,0.13
2.218930244445801,-0.04,0.03,0.05,0.07
2.2286860942840576,-0.03,0.22,-0.01,0.22
2.2386860847473145,0.05,0.18,0.07,0.19
2.2487668991088867,0.15,0.16,0.12,0.25
2.258697032928467,0.17,0.22,0.08,0.28
2.2686331272125244,0.12,0.22,0.05,0.25
2.278569221496582,0.09,0.28,0.15,0.33
2.2885730266571045,-0.05,0.25,0.2,0.32
2.298607110977173,-0.15,0.29,0.06,0.33
2.3084371089935303,-0.11,0.36,0.07,0.38
2.318704128265381,-0.05,0.34,0.15,0.37
2.3283772468566895,0.08,0.27,0.09,0.29
2.338402032852173,0.04,0.06,0.27,0.27
2.3483939170837402,-0.07,0.14,0.35,0.38
2.3584110736846924,-0.18,0.08,0.21,0.28
2.3683841228485107,-0.3,0.05,0.16,0.34
2.3782529830932617,-0.33,0.09,0.19,0.39
2.388298988342285,-0.31,-0.04,0.25,0.4
2.3983640670776367,-0.27,0.01,0.15,0.3
2.408082962036133,-0.26,0.01,0.02,0.26
2.4182651042938232,-0.18,0.07,0.11,0.22
2.427988052368164,-0.12,0.1,0.15,0.21
2.4381189346313477,0.0,0.1,0.16,0.18
2.4480791091918945,-0.05,0.07,0.15,0.17
2.4579970836639404,-0.16,0.09,0.07,0.19
2.4679741859436035,-0.19,0.11,-0.15,0.26
2.477898120880127,-0.17,0.11,-0.06,0.21
2.488056182861328,-0.17,0.13,0.12,0.24
2.4979991912841797,-0.15,0.14,-0.08,0.22
2.50777006149292,-0.09,0.05,-0.15,0.18
2.5179331302642822,-0.07,0.1,-0.04,0.12
2.5277981758117676,-0.11,0.14,-0.01,0.17
2.5378122329711914,-0.11,0.09,0.0,0.14
2.5477731227874756,-0.14,0.07,0.07,0.17
2.557655096054077,-0.14,0.04,0.12,0.18
2.5676541328430176,-0.11,0.02,0.13,0.17
2.5775489807128906,-0.09,0.02,0.16,0.18
2.587663173675537,-0.06,-0.02,0.21,0.21
2.5977931022644043,-0.05,-0.04,0.16,0.17
2.607478141784668,-0.05,-0.01,0.11,0.12
2.617509126663208,-0.09,0.02,0.06,0.11
2.627540111541748,-0.08,0.03,0.1,0.13
2.6374990940093994,-0.04,0.07,0.07,0.1
2.647468090057373,-0.03,0.14,-0.06,0.15
2.657457113265991,-0.02,0.11,-0.17,0.2
2.6672439575195312,-0.04,0.11,-0.18,0.21
2.6774611473083496,-0.07,0.14,-0.15,0.21
2.6872830390930176,-0.11,0.08,-0.19,0.23
2.697313070297241,-0.14,0.03,-0.18,0.23
2.707324981689453,-0.11,-0.11,-0.25,0.29
2.7173850536346436,-0.08,-0.1,0.02,0.12
2.7272870540618896,-0.1,0.05,0.19,0.22
2.7371392250061035,-0.1,0.02,0.21,0.23
2.7471232414245605,0.0,-0.09,0.07,0.11
2.7572500705718994,0.04,-0.11,0.17,0.2
2.7670350074768066,-0.01,-0.02,0.18,0.18
2.777271032333374,-0.07,0.05,-0.1,0.13
2.787297248840332,-0.1,0.03,0.21,0.23
2.7971200942993164,0.03,0.02,0.22,0.22
2.807058095932007,0.04,0.04,0.19,0.19
2.8170480728149414,-0.06,0.06,0.31,0.32
2.8270580768585205,-0.1,0.02,0.19,0.21
2.837143898010254,-0.07,0.04,0.12,0.14
2.847130060195923,-0.05,0.08,-0.16,0.18
2.857023239135742,-0.16,0.03,-0.32,0.35
2.8771729469299316,-0.17,0.0,-0.17,0.24
2.8811540603637695,-0.1,0.0,-0.1,0.14
2.890622138977051,-0.05,0.04,-0.14,0.15
2.896778106689453,-0.07,0.12,-0.12,0.18
2.906877040863037,-0.12,0.08,-0.16,0.21
2.9193150997161865,-0.14,0.0,-0.21,0.25
2.9268360137939453,-0.18,0.01,-0.19,0.26
2.940688133239746,-0.21,0.02,-0.2,0.29
2.94663405418396,-0.17,-0.02,-0.18,0.24
2.956712245941162,-0.11,-0.05,-0.2,0.23
2.9671061038970947,-0.12,-0.02,-0.15,0.19
2.9764132499694824,-0.12,-0.04,-0.08,0.14
2.98695707321167,-0.11,-0.12,-0.03,0.16
2.9970691204071045,-0.17,-0.13,0.04,0.21
3.007047176361084,-0.22,-0.09,0.05,0.24
3.016970157623291,-0.2,-0.18,0.23,0.35
3.0272750854492188,-0.18,-0.21,0.18,0.32
3.036555051803589,-0.18,-0.17,0.03,0.24
3.0469889640808105,-0.2,-0.15,0.04,0.25
3.056774139404297,-0.2,-0.14,0.06,0.25
3.067056179046631,-0.2,-0.19,0.11,0.29
3.0780959129333496,-0.15,-0.07,0.15,0.22
3.0865859985351562,-0.19,-0.03,0.12,0.22
3.097130060195923,-0.23,-0.06,0.14,0.27
3.1067862510681152,-0.2,0.0,0.16,0.25
3.1171300411224365,-0.14,0.01,0.14,0.19
3.1275291442871094,-0.1,-0.08,0.1,0.16
3.136280059814453,-0.14,-0.12,0.04,0.18
3.1465821266174316,-0.15,-0.14,0.03,0.2
3.156440019607544,-0.16,-0.14,0.0,0.21
3.166018009185791,-0.16,-0.16,0.0,0.22
3.1766860485076904,-0.14,-0.17,-0.03,0.22
3.186115026473999,-0.12,-0.19,-0.04,0.22
3.1964111328125,-0.09,-0.18,0.0,0.2
3.2062630653381348,-0.09,-0.22,0.08,0.25
3.2168641090393066,-0.11,-0.27,0.12,0.31
3.2281641960144043,-0.14,-0.3,0.1,0.34
3.2358999252319336,-0.16,-0.3,0.15,0.37
3.2463111877441406,-0.18,-0.32,0.22,0.42
3.256223201751709,-0.16,-0.39,0.19,0.46
3.266547203063965,-0.15,-0.46,0.1,0.49
3.2764780521392822,-0.13,-0.49,0.08,0.51
3.2858691215515137,-0.11,-0.45,0.1,0.47
3.296048164367676,-0.09,-0.49,0.1,0.5
3.306087017059326,-0.04,-0.55,0.01,0.55
3.316725254058838,-0.08,-0.53,-0.03,0.53
3.327956199645996,-0.12,-0.48,-0.07,0.49
3.33522891998291,-0.12,-0.48,-0.13,0.51
3.3455140590667725,-0.12,-0.48,-0.17,0.52
3.3560221195220947,-0.09,-0.43,-0.19,0.47
3.366051197052002,-0.09,-0.4,-0.12,0.42
3.3764350414276123,-0.06,-0.4,-0.08,0.41
3.3854970932006836,-0.03,-0.43,-0.07,0.43
3.395815134048462,-0.04,-0.45,-0.13,0.47
3.4058032035827637,-0.1,-0.44,-0.19,0.48
3.415940046310425,-0.1,-0.42,-0.14,0.45
3.426270008087158,-0.08,-0.45,-0.15,0.48
3.4351630210876465,-0.08,-0.47,-0.17,0.5
3.445363998413086,-0.12,-0.5,-0.17,0.54
3.455491065979004,-0.12,-0.48,-0.14,0.51
3.466507911682129,-0.11,-0.51,-0.15,0.54
3.4773480892181396,-0.12,-0.55,-0.15,0.58
3.4851410388946533,-0.15,-0.59,-0.21,0.64
3.495274066925049,-0.17,-0.62,-0.32,0.71
3.5054969787597656,-0.18,-0.63,-0.4,0.76
3.5159671306610107,-0.2,-0.59,-0.45,0.76
3.5271430015563965,-0.19,-0.5,-0.48,0.71
3.534971237182617,-0.16,-0.49,-0.6,0.79
3.5452651977539062,-0.1,-0.52,-0.58,0.78
3.5553970336914062,-0.07,-0.53,-0.48,0.71
3.5656862258911133,-0.08,-0.56,-0.43,0.71
3.5763330459594727,-0.17,-0.6,-0.35,0.71
3.5848100185394287,-0.21,-0.63,-0.29,0.72
3.595108985900879,-0.3,-0.55,-0.21,0.66
3.6051759719848633,-0.41,-0.42,-0.23,0.63
3.615583896636963,-0.45,-0.42,-0.22,0.65
3.6258320808410645,-0.43,-0.4,-0.21,0.62
3.6348719596862793,-0.38,-0.42,-0.3,0.64
3.64491605758667,-0.3,-0.39,-0.31,0.58
3.6549439430236816,-0.3,-0.33,-0.32,0.54
3.664381980895996,-0.32,-0.32,-0.32,0.55
3.674215078353882,-0.35,-0.28,-0.27,0.52
3.68412709236145,-0.35,-0.22,-0.29,0.5
3.6940081119537354,-0.33,-0.17,-0.26,0.45
3.704665184020996,-0.32,-0.18,-0.12,0.38
3.715384006500244,-0.34,-0.16,-0.13,0.39
3.729310989379883,-0.36,-0.16,-0.15,0.42
3.734678030014038,-0.3,-0.16,-0.13,0.36
3.744641065597534,-0.2,-0.17,-0.14,0.29
3.75492525100708,-0.09,-0.23,-0.21,0.32
3.765263080596924,-0.03,-0.27,-0.19,0.33
3.775576114654541,-0.1,-0.67,-0.07,0.68
3.7850160598754883,-0.22,-0.87,-0.4,0.98
3.7945940494537354,-0.21,-0.32,-0.25,0.45
3.8047261238098145,-0.1,-0.08,-0.03,0.13
3.8145101070404053,-0.01,-0.08,0.02,0.08
3.8243041038513184,0.05,-0.23,-0.09,0.25
3.8351030349731445,0.07,-0.29,-0.19,0.35
3.843852996826172,0.04,-0.15,-0.17,0.23
3.854478120803833,-0.08,-0.01,-0.18,0.19
3.864345073699951,-0.15,0.07,-0.2,0.25
3.875307083129883,-0.16,0.11,-0.11,0.22
3.884939193725586,-0.2,0.17,0.03,0.26
3.894325017929077,-0.17,0.19,0.08,0.26
3.90433406829834,-0.16,0.17,0.06,0.24
3.914886951446533,-0.13,0.15,0.01,0.19
3.9257402420043945,-0.12,0.19,0.02,0.22
3.934627056121826,-0.15,0.19,0.02,0.24
3.943653106689453,-0.16,0.2,0.03,0.25
3.954277992248535,-0.12,0.15,-0.02,0.19
3.964677095413208,0.07,0.05,-0.15,0.17
3.9752490520477295,0.26,-0.06,-0.3,0.4
3.9849541187286377,0.29,-0.09,-0.18,0.35
3.994018077850342,0.17,-0.02,-0.05,0.17
4.004120111465454,0.04,0.03,0.09,0.1
4.01451301574707,-0.07,0.02,0.19,0.2
4.026553153991699,-0.13,-0.1,0.16,0.22
4.034852027893066,-0.2,-0.26,0.17,0.36
4.043814182281494,-0.28,-0.37,0.19,0.5
4.054008960723877,-0.29,-0.45,0.16,0.55
4.064402103424072,-0.23,-0.46,0.14,0.53
4.075374126434326,-0.14,-0.4,0.13,0.44
4.0837790966033936,-0.01,-0.34,0.15,0.37
4.093846082687378,0.12,-0.32,0.08,0.35
4.103821039199829,0.2,-0.35,0.07,0.4
4.114109039306641,0.22,-0.35,0.19,0.45
4.125536918640137,0.13,-0.27,0.2,0.36
4.133768081665039,0.03,-0.21,0.07,0.22
4.143558025360107,-0.02,-0.19,-0.11,0.22
4.153788089752197,-0.04,-0.21,-0.17,0.27
4.163908958435059,-0.1,-0.13,-0.12,0.2
4.174499988555908,-0.13,0.03,-0.11,0.17
4.182851076126099,-0.13,0.16,-0.19,0.28
4.193486213684082,-0.17,0.23,-0.13,0.31
4.203635215759277,-0.11,0.22,-0.04,0.24
4.213742017745972,-0.22,0.11,0.0,0.24
4.2244720458984375,-0.28,0.0,-0.08,0.29
4.232748985290527,-0.32,0.09,-0.21,0.39
4.2433180809021,-0.61,0.3,-0.27,0.73
4.253352165222168,-0.8,0.33,-0.28,0.9
4.2630839347839355,-0.8,0.27,-0.16,0.85
4.273548126220703,-0.7,0.3,-0.24,0.79
4.28269624710083,-0.55,0.36,-0.32,0.73
4.293182134628296,-0.36,0.55,-0.11,0.66
4.303264141082764,-0.12,0.84,0.28,0.89
4.313115119934082,0.12,1.14,0.52,1.25
4.323329925537109,0.38,1.31,0.59,1.48
4.33243203163147,0.62,1.4,0.67,1.67
4.342932224273682,0.68,1.49,0.71,1.78
4.353162050247192,0.58,1.62,0.56,1.8
4.363299131393433,0.33,1.71,0.43,1.79
4.37371301651001,0.13,1.8,0.4,1.84
4.382214069366455,-0.02,1.86,0.35,1.89
4.392946243286133,-0.09,1.92,0.19,1.93
4.402836084365845,-0.06,1.91,0.07,1.91
4.412691116333008,0.03,1.83,0.07,1.83
4.424403190612793,0.14,1.79,0.23,1.81
4.432593107223511,0.23,1.68,0.39,1.73
4.442621231079102,0.24,1.54,0.46,1.62
4.452923059463501,0.29,1.39,0.48,1.49
4.462704181671143,0.3,1.26,0.42,1.36
4.472637176513672,0.17,1.12,0.39,1.19
4.48196005821228,0.04,0.97,0.37,1.03
4.492615222930908,-0.05,0.86,0.3,0.91
4.502532005310059,-0.17,0.75,0.2,0.79
4.513160228729248,-0.28,0.63,0.03,0.69
4.5259599685668945,-0.4,0.5,-0.09,0.64
4.532372951507568,-0.48,0.36,-0.06,0.6
4.542385101318359,-0.55,0.32,-0.04,0.63
4.552613019943237,-0.55,0.28,-0.05,0.61
4.56283712387085,-0.59,0.24,-0.08,0.64
4.57521390914917,-0.65,0.19,-0.14,0.69
4.582216024398804,-0.7,0.15,-0.17,0.73
4.592339992523193,-0.77,0.12,-0.24,0.81
4.6028900146484375,-0.76,0.08,-0.23,0.79
4.612709999084473,-0.67,0.04,-0.18,0.69
4.623842239379883,-0.55,0.07,-0.12,0.56
4.631485939025879,-0.45,0.07,-0.04,0.45
4.642060041427612,-0.34,0.06,0.1,0.35
4.652794122695923,-0.26,0.08,0.17,0.32
4.662099123001099,-0.19,0.06,0.14,0.24
4.672015190124512,-0.21,0.02,0.11,0.23
4.6812660694122314,-0.25,-0.01,0.09,0.26
4.691983222961426,-0.29,-0.05,0.01,0.29
4.70235013961792,-0.32,-0.05,-0.01,0.32
4.711913108825684,-0.34,-0.02,0.04,0.34
4.72376823425293,-0.37,0.05,0.14,0.39
4.731611251831055,-0.37,0.12,0.16,0.42
4.741652011871338,-0.28,0.12,0.15,0.33
4.75223708152771,-0.19,0.16,0.12,0.27
4.762315034866333,-0.16,0.17,0.09,0.25
4.774167060852051,-0.14,0.23,0.0,0.26
4.7809882164001465,-0.14,0.31,-0.07,0.34
4.791653156280518,-0.17,0.35,-0.13,0.41
4.802485942840576,-0.19,0.36,-0.1,0.41
4.811597108840942,-0.18,0.44,-0.06,0.47
4.823822021484375,-0.13,0.46,-0.1,0.48
4.830940246582031,-0.02,0.4,-0.03,0.4
4.8414201736450195,0.14,0.35,0.05,0.38
4.852766990661621,0.23,0.31,0.05,0.38
4.861772060394287,0.25,0.28,-0.02,0.37
4.873453140258789,0.22,0.23,-0.07,0.32
4.880563020706177,0.18,0.23,-0.09,0.3
4.891380071640015,0.17,0.2,-0.14,0.29
4.90298318862915,0.26,0.18,-0.17,0.35
4.911780118942261,0.37,0.19,-0.24,0.48
4.9235029220581055,0.42,0.18,-0.24,0.51
4.93048620223999,0.42,0.22,-0.16,0.5
4.941234111785889,0.44,0.25,-0.15,0.52
4.952887058258057,0.48,0.27,-0.19,0.58
4.961522102355957,0.51,0.25,-0.27,0.62
4.973292112350464,0.56,0.22,-0.29,0.66
4.98050594329834,0.64,0.23,-0.19,0.7
4.99095606803894,0.63,0.23,-0.1,0.67
5.002231121063232,0.58,0.21,-0.06,0.61
5.011246204376221,0.5,0.2,-0.06,0.54
5.023410081863403,0.44,0.18,-0.03,0.47
5.030248165130615,0.45,0.18,0.0,0.48
5.040872097015381,0.48,0.19,-0.06,0.51
5.052649021148682,0.55,0.18,-0.09,0.58
5.060705184936523,0.69,0.15,-0.05,0.7
5.073287010192871,0.8,0.17,-0.06,0.82
5.080634117126465,0.88,0.18,-0.07,0.9
5.090809106826782,0.94,0.15,0.02,0.95
5.10322904586792,0.97,0.12,0.04,0.97
5.1110780239105225,0.99,0.08,0.06,0.99
5.123613119125366,0.96,0.09,0.1,0.96
5.130492210388184,0.88,0.08,0.04,0.88
5.140515089035034,0.83,0.02,-0.11,0.83
5.1537251472473145,0.82,-0.08,-0.17,0.84
5.160928249359131,0.78,-0.17,-0.12,0.8
5.173898220062256,0.75,-0.22,-0.11,0.78
5.179655075073242,0.75,-0.16,-0.11,0.77
5.190557956695557,0.82,-0.11,-0.06,0.82
5.200589179992676,0.9,-0.09,-0.04,0.9
5.2110021114349365,0.95,-0.08,-0.07,0.95
5.2229461669921875,0.94,-0.08,-0.07,0.94
5.230406045913696,0.86,-0.06,-0.05,0.86
5.240260124206543,0.86,-0.1,-0.09,0.87
5.2504050731658936,0.89,-0.13,-0.08,0.9
5.260209083557129,0.93,-0.14,0.04,0.94
5.27378511428833,1.03,-0.18,0.12,1.05
5.279717922210693,1.07,-0.2,0.08,1.09
5.2901930809021,1.03,-0.24,0.07,1.05
5.30023193359375,0.91,-0.32,0.24,0.99
5.31008505821228,0.78,-0.37,0.34,0.92
5.3238890171051025,0.74,-0.41,0.26,0.88
5.330018997192383,0.83,-0.49,0.17,0.97
5.339989185333252,0.94,-0.61,0.11,1.12
5.349879026412964,1.03,-0.67,0.05,1.22
5.360350131988525,1.1,-0.63,-0.06,1.26
5.373446941375732,1.06,-0.55,-0.09,1.19
5.379365921020508,1.1,-0.5,0.06,1.2
5.389853000640869,1.18,-0.51,0.18,1.29
5.400369167327881,1.18,-0.43,0.24,1.27
5.409744024276733,1.03,-0.2,0.22,1.07
5.4233222007751465,0.79,-0.07,0.01,0.79
5.429174900054932,0.54,0.0,0.04,0.54
5.439640045166016,0.38,0.09,0.17,0.42
5.4496541023254395,0.31,0.17,0.09,0.36
5.459486961364746,0.29,0.16,-0.06,0.33
5.473207950592041,0.34,0.08,-0.18,0.39
5.479043006896973,0.46,0.0,-0.24,0.51
5.489527225494385,0.63,-0.01,-0.31,0.7
5.500308990478516,0.57,0.04,-0.45,0.72
5.510112047195435,0.46,0.02,-0.61,0.76
5.523284912109375,0.36,-0.01,-0.73,0.81
5.528865098953247,0.37,0.07,-0.63,0.73
5.539405107498169,0.69,0.22,-0.37,0.81
5.549338102340698,0.9,0.4,-0.53,1.11
5.559834003448486,0.92,0.48,-0.69,1.24
5.573802947998047,0.86,0.53,-0.72,1.24
5.578726053237915,0.82,0.5,-0.75,1.21
5.589217185974121,0.77,0.52,-0.81,1.23
5.5989089012146,0.7,0.52,-0.93,1.27
5.609718084335327,0.67,0.38,-0.89,1.17
5.623672008514404,0.61,0.28,-0.71,0.97
5.628565073013306,0.67,0.25,-0.39,0.81
5.638556003570557,0.79,0.31,-0.05,0.85
5.6487390995025635,0.73,0.22,-0.05,0.76
5.659514904022217,0.66,0.04,-0.02,0.66
5.6748480796813965,0.75,-0.03,-0.16,0.76
5.678286075592041,0.76,-0.06,-0.47,0.89
5.6889331340789795,0.71,-0.07,-0.41,0.82
5.69888710975647,0.79,-0.07,-0.45,0.91
5.7092461585998535,0.94,-0.07,-0.59,1.11
5.725375175476074,1.09,-0.01,-0.74,1.31
5.728715896606445,1.16,0.03,-0.85,1.43
5.738678932189941,1.07,0.04,-0.5,1.18
5.749032020568848,0.94,0.06,-0.22,0.96
5.758791923522949,0.61,0.04,-0.21,0.64
5.774054050445557,0.3,-0.03,-0.32,0.43
5.7780821323394775,0.12,-0.25,-0.55,0.61
5.7886199951171875,0.02,-0.48,-0.52,0.7
5.798809051513672,-0.02,-0.64,-0.37,0.73
5.8091161251068115,-0.06,-0.7,-0.33,0.77
5.824724197387695,-0.1,-0.66,-0.22,0.7
5.828382968902588,-0.09,-0.65,-0.19,0.68
5.838415145874023,-0.23,-0.56,-0.13,0.61
5.848717212677002,-0.53,-0.4,0.19,0.69
5.858898162841797,-0.92,-0.31,0.41,1.05
5.875023126602173,-1.33,-0.26,0.38,1.4
5.878185033798218,-1.54,-0.33,0.51,1.65
5.888395071029663,-1.57,-0.37,0.6,1.72
5.898179054260254,-1.61,-0.34,0.56,1.73
5.9089720249176025,-1.66,-0.32,0.63,1.8
5.923876047134399,-1.8,-0.38,0.68,1.96
5.9276580810546875,-1.98,-0.51,0.75,2.17
5.938097953796387,-2.18,-0.5,0.96,2.43
5.948397159576416,-2.44,-0.43,1.09,2.7
5.958745002746582,-2.61,-0.39,1.06,2.84
5.9750142097473145,-2.65,-0.47,1.21,2.95
5.9774322509765625,-2.56,-0.54,1.46,2.99
5.988110065460205,-2.53,-0.44,1.53,2.98
5.998300075531006,-2.64,-0.4,1.55,3.08
6.00858211517334,-2.77,-0.37,1.51,3.17
6.024841070175171,-2.82,-0.27,1.6,3.25
6.027304172515869,-2.76,-0.24,1.76,3.28
6.037777900695801,-2.66,-0.27,1.8,3.22
6.0480852127075195,-2.52,-0.2,1.86,3.13
6.058428049087524,-2.46,-0.16,1.77,3.03
6.0744640827178955,-2.43,-0.06,1.56,2.88
6.0775110721588135,-2.41,0.03,1.46,2.81
6.0878400802612305,-2.33,0.15,1.32,2.68
6.098071098327637,-2.2,0.2,1.08,2.45
6.108302116394043,-2.11,0.17,0.91,2.3
6.124272108078003,-2.08,0.12,0.79,2.22
6.126954078674316,-2.07,0.19,0.69,2.19
6.137506008148193,-2.02,0.23,0.67,2.14
6.147347927093506,-1.98,0.29,0.57,2.08
6.157997131347656,-1.92,0.25,0.48,1.99
6.1769819259643555,-1.86,0.18,0.51,1.93
6.17808723449707,-1.77,0.13,0.44,1.82
6.187420129776001,-1.68,0.13,0.37,1.72
6.197099208831787,-1.58,0.1,0.32,1.61
6.207852125167847,-1.4,0.12,0.21,1.42
6.225337982177734,-1.2,0.12,0.06,1.2
6.226881980895996,-1.13,0.16,-0.02,1.14
6.237199068069458,-1.08,0.16,-0.11,1.09
6.247174024581909,-1.02,0.12,-0.19,1.04
6.257181167602539,-0.99,0.01,-0.18,1.0
6.267827033996582,-1.01,-0.03,-0.13,1.01
6.276470184326172,-0.99,-0.04,-0.12,0.99
6.2873759269714355,-0.93,-0.03,-0.09,0.93
6.297365188598633,-0.8,-0.01,-0.04,0.8
6.30710506439209,-0.67,-0.03,-0.08,0.67
6.316734075546265,-0.59,-0.03,-0.05,0.59
6.326560974121094,-0.58,-0.02,-0.01,0.58
6.337152004241943,-0.59,-0.06,-0.02,0.59
6.34703803062439,-0.54,-0.06,0.0,0.54
6.356873989105225,-0.48,-0.09,-0.06,0.49
6.367383003234863,-0.43,-0.11,-0.11,0.45
6.376378059387207,-0.45,-0.12,-0.15,0.48
6.387085914611816,-0.43,-0.11,-0.17,0.47
6.396949052810669,-0.41,-0.17,-0.18,0.47
6.406790018081665,-0.4,-0.23,-0.15,0.48
6.416910171508789,-0.4,-0.26,-0.11,0.48
6.426531076431274,-0.42,-0.23,-0.05,0.48
6.436760902404785,-0.42,-0.26,0.02,0.49
6.4469099044799805,-0.35,-0.22,0.07,0.41
6.456796169281006,-0.3,-0.22,0.04,0.37
6.467134952545166,-0.26,-0.2,0.01,0.32
6.475851058959961,-0.24,-0.14,0.01,0.27
6.486780166625977,-0.19,-0.07,0.06,0.21
6.496203899383545,-0.11,-0.05,0.06,0.13
6.507113933563232,-0.04,0.01,0.03,0.05
6.516925096511841,-0.01,0.08,0.02,0.08
6.525573253631592,-0.02,0.08,0.02,0.08
6.536484241485596,-0.06,0.09,0.05,0.11
6.546584129333496,-0.09,0.09,0.12,0.17
6.556847095489502,-0.11,0.04,0.19,0.22
6.566608905792236,-0.11,-0.02,0.21,0.23
6.576188087463379,-0.08,-0.01,0.2,0.21
6.586307048797607,-0.06,0.02,0.18,0.19
6.596405029296875,-0.04,0.07,0.12,0.14
6.606624126434326,-0.01,0.13,0.07,0.14
6.6162450313568115,-0.01,0.18,0.1,0.2
6.6269330978393555,0.0,0.21,0.13,0.24
6.63570499420166,0.06,0.13,0.14,0.2
6.645945072174072,0.07,0.04,0.2,0.21
6.656042098999023,0.03,0.03,0.18,0.18
6.6663899421691895,-0.06,0.01,0.17,0.18
6.675302028656006,-0.13,0.03,0.19,0.23
6.686060905456543,-0.15,0.05,0.21,0.26
6.695611000061035,-0.19,0.04,0.17,0.25
6.706603050231934,-0.23,0.03,0.13,0.26
6.716071128845215,-0.25,0.01,0.05,0.25
6.7256059646606445,-0.23,-0.01,0.03,0.23
6.73572301864624,-0.2,0.01,0.06,0.2
6.745272159576416,-0.2,0.06,0.1,0.23
6.755665063858032,-0.18,0.09,0.15,0.25
6.766016960144043,-0.19,0.13,0.14,0.26
6.775137901306152,-0.2,0.17,0.14,0.29
6.78577995300293,-0.24,0.2,0.11,0.33
6.795310974121094,-0.29,0.17,0.15,0.36
6.8056111335754395,-0.33,0.14,0.25,0.43
6.815899133682251,-0.34,0.12,0.27,0.45
6.825093030929565,-0.33,0.11,0.26,0.43
6.835387229919434,-0.33,0.16,0.17,0.4
6.845221996307373,-0.29,0.23,0.1,0.38
6.85582709312439,-0.3,0.29,0.03,0.41
6.865701198577881,-0.33,0.25,-0.02,0.41
6.875240087509155,-0.36,0.27,0.01,0.45
6.885773181915283,-0.42,0.37,0.01,0.55
6.895030975341797,-0.43,0.48,-0.01,0.64
6.905320167541504,-0.41,0.53,-0.04,0.67
6.915462970733643,-0.39,0.67,-0.11,0.78
6.924570083618164,-0.41,0.82,-0.17,0.93
6.9359259605407715,-0.44,0.93,-0.21,1.05
6.944874048233032,-0.49,0.99,-0.21,1.12
6.955193996429443,-0.5,1.04,-0.17,1.16
6.965439081192017,-0.54,1.07,-0.13,1.2
6.975106239318848,-0.6,1.14,-0.09,1.29
6.98584508895874,-0.62,1.25,-0.06,1.39
6.994828224182129,-0.61,1.32,-0.07,1.45
7.005540132522583,-0.6,1.42,-0.06,1.54
7.01529598236084,-0.58,1.52,-0.02,1.62
7.026252031326294,-0.64,1.57,0.05,1.69
7.035955905914307,-0.7,1.54,0.17,1.7
7.044755935668945,-0.77,1.58,0.25,1.77
7.054851055145264,-0.86,1.62,0.39,1.87
7.064590930938721,-0.94,1.68,0.48,1.98
7.074059009552002,-0.95,1.71,0.58,2.04
7.085728168487549,-0.88,1.74,0.6,2.04
7.0946221351623535,-0.89,1.81,0.59,2.1
7.104548931121826,-0.89,1.91,0.58,2.18
7.1149139404296875,-0.82,1.96,0.59,2.2
7.124939918518066,-0.81,2.03,0.58,2.26
7.136075973510742,-0.86,2.08,0.6,2.32
7.144439220428467,-0.82,2.09,0.59,2.32
7.154349088668823,-0.82,2.07,0.61,2.3
7.164371013641357,-0.86,2.0,0.65,2.27
7.173871040344238,-1.02,1.91,0.72,2.28
7.1860411167144775,-0.83,1.81,0.73,2.12
7.193993091583252,-0.83,1.76,0.83,2.11
7.204355239868164,-0.95,1.73,0.83,2.14
7.214009046554565,-0.93,1.73,0.78,2.11
7.22418212890625,-0.93,1.74,0.79,2.12
7.235564231872559,-0.93,1.79,0.77,2.15
7.243895053863525,-0.85,1.86,0.77,2.18
7.254361152648926,-0.76,1.87,0.8,2.17
7.264020919799805,-0.64,1.73,0.78,2.0
7.273668050765991,-0.6,1.64,0.73,1.89
7.285494089126587,-0.75,1.5,0.71,1.82
7.293926239013672,-0.89,1.45,0.77,1.86
7.304270029067993,-1.03,1.34,0.84,1.88
7.313794136047363,-1.05,1.2,0.86,1.81
7.324104070663452,-1.03,1.09,0.85,1.72
7.333830118179321,-1.02,1.01,0.78,1.63
7.343869209289551,-1.01,0.95,0.69,1.54
7.354040145874023,-1.04,0.93,0.6,1.51
7.36337423324585,-1.04,1.02,0.6,1.57
7.37376594543457,-1.09,0.98,0.53,1.55
7.3837809562683105,-1.08,0.89,0.52,1.49
7.393608093261719,-1.08,0.66,0.58,1.39
7.403878211975098,-1.17,0.49,0.61,1.4
7.413584232330322,-1.32,0.43,0.62,1.52
7.423532962799072,-1.39,0.39,0.57,1.55
7.433463096618652,-1.29,0.28,0.49,1.4
7.443548202514648,-1.26,0.24,0.41,1.34
7.453614234924316,-1.23,0.24,0.34,1.29
7.463344097137451,-1.19,0.25,0.23,1.23
7.474797248840332,-1.16,0.28,0.17,1.2
7.4834160804748535,-1.05,0.25,0.17,1.09
7.493916034698486,-0.98,0.13,0.1,0.99
7.504178047180176,-0.88,0.05,0.09,0.88
7.513066053390503,-0.84,0.02,0.09,0.84
7.523890972137451,-0.83,-0.03,0.06,0.83
7.533273220062256,-0.76,-0.09,-0.06,0.76
7.543385028839111,-0.68,-0.22,-0.05,0.71
7.553439140319824,-0.58,-0.36,-0.01,0.68
7.5630950927734375,-0.46,-0.5,0.06,0.68
7.5747971534729,-0.41,-0.77,0.21,0.89
7.583072185516357,-0.33,-1.04,0.19,1.1
7.593168020248413,-0.27,-1.28,0.3,1.34
7.603327035903931,-0.32,-1.54,0.39,1.62
7.612921237945557,-0.3,-1.73,0.36,1.79
7.624279975891113,-0.22,-1.87,0.33,1.91
7.632997035980225,-0.12,-1.99,0.3,2.01
7.643094062805176,0.0,-2.04,0.22,2.05
7.653509140014648,0.04,-2.05,0.13,2.05
7.662875175476074,0.08,-2.03,0.08,2.03
7.67476224899292,0.12,-2.04,0.04,2.04
7.682755947113037,0.28,-2.1,0.11,2.12
7.692899227142334,0.19,-2.13,0.23,2.15
7.70306921005249,0.3,-2.1,0.21,2.13
7.712653160095215,0.42,-2.17,0.19,2.21
7.723923206329346,0.51,-2.26,0.21,2.32
7.732399940490723,0.55,-2.25,0.21,2.32
7.742699146270752,0.54,-2.2,0.2,2.27
7.752677917480469,0.6,-2.2,0.16,2.28
7.76242208480835,0.55,-2.18,0.09,2.25
7.77348518371582,0.56,-2.19,-0.01,2.26
7.7823262214660645,0.53,-2.2,-0.08,2.26
7.792548179626465,0.48,-2.19,-0.16,2.24
7.802659034729004,0.5,-2.21,-0.2,2.27
7.81235408782959,0.49,-2.24,-0.27,2.3
7.823498249053955,0.53,-2.26,-0.35,2.34
7.832156181335449,0.44,-2.21,-0.39,2.28
7.842442035675049,0.43,-2.12,-0.48,2.21
7.853332996368408,0.36,-1.99,-0.55,2.09
7.862244129180908,0.32,-1.8,-0.61,1.92
7.873833179473877,0.35,-1.65,-0.68,1.81
7.881859064102173,0.37,-1.51,-0.74,1.72
7.892354965209961,0.38,-1.34,-0.71,1.56
7.903203964233398,0.39,-1.28,-0.57,1.45
7.912003040313721,0.35,-1.22,-0.51,1.36
7.923460960388184,0.3,-1.15,-0.37,1.24
7.93196702003479,0.24,-1.2,-0.27,1.25
7.942142963409424,0.15,-1.22,-0.2,1.24
7.952737092971802,0.07,-1.16,-0.18,1.17
7.961921215057373,0.02,-1.06,-0.2,1.07
7.973505020141602,0.05,-1.02,-0.24,1.04
7.981918096542358,0.04,-0.96,-0.27,0.99
7.991873025894165,0.03,-0.85,-0.31,0.9
8.002604007720947,0.0,-0.78,-0.35,0.85
8.011678218841553,-0.03,-0.74,-0.39,0.83
8.023465156555176,-0.05,-0.73,-0.43,0.84
8.031782150268555,0.01,-0.74,-0.44,0.86
8.041553020477295,-0.04,-0.74,-0.52,0.9
8.053092002868652,-0.05,-0.71,-0.49,0.86
8.061592102050781,-0.1,-0.76,-0.43,0.87
8.073915958404541,-0.1,-0.76,-0.38,0.85
8.081157207489014,-0.09,-0.72,-0.36,0.81
8.091733932495117,-0.03,-0.66,-0.34,0.74
8.103079080581665,0.05,-0.61,-0.32,0.69
8.111430168151855,0.11,-0.48,-0.25,0.55
8.124032974243164,0.16,-0.34,-0.15,0.4
8.130985021591187,0.27,-0.26,-0.05,0.37
8.141509056091309,0.36,-0.17,0.04,0.4
8.152553081512451,0.42,-0.17,0.06,0.45
8.161436080932617,0.39,-0.13,0.05,0.41
8.173869132995605,0.36,-0.1,0.09,0.38
8.180829048156738,0.25,-0.12,0.14,0.31
8.191249132156372,0.17,-0.2,0.18,0.31
8.202307224273682,0.12,-0.23,0.15,0.29
8.211146116256714,-0.03,-0.2,0.09,0.22
8.224822044372559,-0.17,-0.19,0.07,0.26
8.230999946594238,-0.26,-0.15,0.03,0.3
8.241175174713135,-0.32,-0.14,0.01,0.34
8.25353717803955,-0.37,-0.11,-0.01,0.38
8.261538028717041,-0.39,-0.12,-0.07,0.41
8.277081966400146,-0.42,-0.11,-0.07,0.43
8.280999183654785,-0.44,-0.07,-0.05,0.44
8.290875911712646,-0.44,0.01,0.01,0.44
8.302914142608643,-0.39,0.05,0.07,0.39
8.310837030410767,-0.37,0.07,0.11,0.39
8.324238061904907,-0.34,0.08,0.12,0.36
8.330310106277466,-0.28,0.13,0.14,0.33
8.340704917907715,-0.24,0.14,0.14,0.31
8.35322093963623,-0.23,0.14,0.12,0.29
8.360633134841919,-0.22,0.17,0.1,0.29
8.375072002410889,-0.23,0.14,0.04,0.27
8.380281925201416,-0.17,0.16,-0.02,0.23
8.390669107437134,-0.12,0.19,-0.1,0.24
8.402736186981201,-0.11,0.21,-0.1,0.25
8.410502910614014,-0.12,0.26,-0.09,0.3
8.424461126327515,-0.1,0.29,-0.12,0.32
8.430394172668457,-0.08,0.24,-0.08,0.26
8.440592050552368,-0.1,0.25,-0.04,0.27
8.451144218444824,-0.11,0.29,-0.05,0.31
8.464043140411377,-0.13,0.3,0.0,0.32
8.469998121261597,-0.16,0.32,0.03,0.35
8.480463027954102,-0.2,0.31,0.02,0.36
8.490265130996704,-0.29,0.3,0.02,0.41
8.500975131988525,-0.39,0.29,0.05,0.48
8.514543056488037,-0.5,0.23,0.1,0.55
8.520109176635742,-0.6,0.18,0.19,0.65
8.530051231384277,-0.9,-0.03,0.09,0.9
8.540358066558838,-1.02,-0.27,-0.19,1.07
8.55062198638916,-1.28,0.02,-0.68,1.44
8.56311321258545,-1.63,-0.02,-2.07,2.63
8.569823026657104,-1.23,-0.05,-0.79,1.46
8.580081939697266,-1.01,0.6,0.82,1.43
8.589867115020752,-1.14,0.69,0.82,1.56
8.600656032562256,-1.12,0.46,0.98,1.55
8.61302900314331,-1.01,0.22,1.15,1.54
8.6198570728302,-1.06,0.08,0.89,1.38
8.62979006767273,-1.15,0.12,0.54,1.27
8.64005708694458,-1.13,0.17,0.42,1.21
8.650223016738892,-1.06,0.35,0.86,1.4
8.661191940307617,-1.05,0.38,0.91,1.44
8.669463157653809,-1.05,0.27,1.02,1.48
8.679715156555176,-0.97,0.29,1.23,1.59
8.689794063568115,-0.95,0.26,1.2,1.55
8.700252056121826,-1.02,0.29,1.14,1.55
8.712165117263794,-1.01,0.45,1.28,1.69
8.719395160675049,-1.03,0.54,1.31,1.75
8.72939920425415,-1.02,0.59,1.22,1.69
8.7396821975708,-1.03,0.67,1.13,1.66
8.750030994415283,-1.08,0.61,1.1,1.65
8.762420177459717,-1.22,0.45,1.11,1.7
8.76905608177185,-1.29,0.26,1.21,1.78
8.779520988464355,-1.43,0.07,1.26,1.9
8.78945016860962,-1.49,-0.05,1.15,1.88
8.799997091293335,-1.5,-0.18,0.94,1.77
8.811325073242188,-1.47,-0.19,0.84,1.7
8.81900405883789,-1.35,-0.08,0.84,1.59
8.82918906211853,-1.31,0.06,0.81,1.54
8.839404106140137,-1.41,0.15,0.66,1.56
8.849829196929932,-1.58,0.16,0.6,1.69
8.861084938049316,-1.83,0.13,0.57,1.92
8.86885690689087,-1.91,0.0,0.46,1.96
8.879183053970337,-1.99,-0.19,0.38,2.03
8.889144897460938,-2.08,-0.32,0.24,2.11
8.899566173553467,-2.1,-0.36,0.09,2.13
8.911773204803467,-2.08,-0.3,-0.03,2.1
8.918752193450928,-2.06,-0.28,-0.1,2.08
8.928786039352417,-1.99,-0.26,-0.2,2.01
8.93892502784729,-1.87,-0.26,-0.28,1.9
8.949392080307007,-1.8,-0.3,-0.34,1.85
8.96096420288086,-1.75,-0.33,-0.32,1.8
8.96845006942749,-1.73,-0.3,-0.25,1.77
8.97879695892334,-1.78,-0.27,-0.17,1.8
8.989413022994995,-1.82,-0.28,-0.09,1.84
8.999214172363281,-1.79,-0.45,-0.2,1.85
9.011341094970703,-1.8,-0.66,-0.35,1.94
9.018420219421387,-1.7,-0.82,-0.45,1.94
9.028594017028809,-1.51,-0.91,-0.48,1.82
9.039100170135498,-1.41,-0.84,-0.52,1.72
9.048587083816528,-1.33,-0.72,-0.68,1.65
9.06016206741333,-1.14,-0.64,-0.84,1.55
9.068466186523438,-0.99,-0.58,-0.95,1.48
9.078489065170288,-1.01,-0.45,-0.76,1.34
9.08866024017334,-1.05,-0.26,-0.62,1.24
9.098917961120605,-0.94,-0.18,-0.55,1.1
9.110679149627686,-0.72,-0.26,-0.5,0.91
9.118432998657227,-0.6,-0.39,-0.61,0.94
9.12814998626709,-0.7,-0.41,-0.64,1.03
9.138544082641602,-0.78,-0.38,-0.9,1.25
9.148186206817627,-0.77,-0.42,-1.19,1.47
9.158524990081787,-0.68,-0.48,-1.35,1.58
9.168323040008545,-0.53,-0.4,-1.45,1.59
9.177717208862305,-0.41,-0.32,-1.35,1.44
9.188352108001709,-0.36,-0.17,-1.01,1.08
9.198117017745972,-0.28,0.09,-0.74,0.79
9.207950115203857,-0.13,0.26,-0.72,0.77
9.218345165252686,0.01,0.26,-0.88,0.91
9.227546215057373,0.12,0.2,-1.04,1.06
9.238222122192383,0.24,0.18,-1.05,1.09
9.247855186462402,0.38,0.2,-1.02,1.1
9.258084058761597,0.51,0.3,-0.99,1.15
9.26852011680603,0.63,0.39,-0.93,1.18
9.277924060821533,0.82,0.44,-0.87,1.27
9.288067102432251,0.94,0.49,-0.79,1.32
9.297893047332764,1.02,0.51,-0.69,1.33
9.308748245239258,1.18,0.5,-0.63,1.42
9.318943977355957,1.36,0.43,-0.56,1.53
9.327751159667969,1.54,0.32,-0.47,1.64
9.338064193725586,1.71,0.23,-0.39,1.76
9.348084926605225,1.85,0.22,-0.29,1.88
9.359102249145508,1.96,0.27,-0.2,1.98
9.368199110031128,2.08,0.32,-0.25,2.11
9.377173900604248,2.22,0.24,-0.27,2.24
9.38739013671875,2.31,0.1,-0.06,2.31
9.397586107254028,2.33,0.06,0.21,2.34
9.40850305557251,2.3,0.06,0.35,2.32
9.418785095214844,2.26,0.09,0.38,2.29
9.42735505104065,2.27,0.08,0.36,2.29
9.437832117080688,2.26,0.0,0.28,2.27
9.44781494140625,2.25,-0.07,0.32,2.27
9.460590124130249,2.21,-0.16,0.33,2.24
9.469322204589844,2.17,-0.17,0.42,2.21
9.477338075637817,2.14,-0.11,0.49,2.19
9.487597942352295,2.14,-0.02,0.56,2.21
9.497791051864624,2.15,0.08,0.61,2.23
9.51174807548523,2.07,0.12,0.6,2.15
9.516775131225586,1.95,0.15,0.51,2.02
9.52721905708313,1.84,0.13,0.39,1.88
9.537431240081787,1.76,0.09,0.29,1.78
9.547673225402832,1.63,0.07,0.26,1.65
9.559181213378906,1.5,0.12,0.21,1.51
9.56662106513977,1.4,0.16,0.15,1.41
9.57720422744751,1.33,0.18,0.19,1.35
9.58733320236206,1.28,0.21,0.24,1.31
9.597472190856934,1.2,0.28,0.21,1.25
9.608942985534668,1.19,0.29,0.2,1.24
9.616616249084473,1.11,0.25,0.18,1.15
9.626856088638306,1.04,0.22,0.11,1.06
9.637022972106934,0.96,0.19,0.05,0.97
9.647036075592041,0.9,0.2,0.05,0.92
9.659777164459229,0.83,0.23,0.06,0.86
9.66615605354309,0.72,0.22,0.06,0.75
9.676854133605957,0.61,0.23,0.05,0.65
9.68696403503418,0.54,0.19,0.06,0.57
9.697220087051392,0.52,0.16,0.05,0.54
9.709763050079346,0.42,0.15,0.03,0.44
9.716379165649414,0.3,0.2,0.03,0.36
9.72642207145691,0.21,0.19,0.03,0.28
9.737289905548096,0.17,0.19,0.07,0.26
9.746982097625732,0.14,0.21,0.08,0.26
9.758302211761475,0.13,0.19,0.08,0.24
9.766037940979004,0.12,0.16,0.07,0.21
9.776613235473633,0.1,0.11,0.09,0.17
9.786675930023193,0.05,0.08,0.05,0.1
9.796864032745361,-0.03,0.07,0.02,0.07
9.808257102966309,-0.1,0.01,0.03,0.1
9.81597089767456,-0.21,-0.01,0.05,0.21
9.826438903808594,-0.3,0.06,0.01,0.3
9.836380958557129,-0.36,0.06,-0.02,0.36
9.846405029296875,-0.36,0.08,-0.06,0.37
9.857930183410645,-0.35,0.09,-0.1,0.37
9.865780115127563,-0.32,0.07,-0.13,0.35
9.876310110092163,-0.28,0.06,-0.1,0.3
9.88623309135437,-0.3,0.07,-0.06,0.31
9.896192073822021,-0.3,0.12,-0.06,0.32
9.90868616104126,-0.33,0.17,-0.05,0.37
9.91581106185913,-0.33,0.15,-0.04,0.36
9.926114082336426,-0.36,0.12,-0.01,0.37
9.936007022857666,-0.39,0.1,-0.01,0.4
9.946001052856445,-0.39,0.07,-0.09,0.4
9.957088947296143,-0.39,0.02,-0.12,0.4
9.965260982513428,-0.38,0.02,-0.07,0.38
9.976006031036377,-0.4,0.07,-0.05,0.4
9.985986232757568,-0.4,0.06,-0.08,0.41
9.996356010437012,-0.41,0.03,-0.11,0.42
10.007068157196045,-0.4,-0.01,-0.12,0.41
10.015294075012207,-0.42,-0.01,-0.06,0.42
10.025836944580078,-0.44,0.04,-0.05,0.44
10.036200046539307,-0.39,0.03,-0.06,0.39
10.045567989349365,-0.35,0.01,-0.06,0.35
10.056809902191162,-0.34,0.03,-0.04,0.34
10.065001964569092,-0.28,-0.02,-0.1,0.29
10.075757026672363,-0.27,-0.04,-0.13,0.3
10.086030960083008,-0.25,-0.06,-0.14,0.29
10.095418930053711,-0.28,-0.04,-0.12,0.3
10.107632160186768,-0.33,-0.07,-0.13,0.36
10.114841938018799,-0.33,-0.08,-0.15,0.37
10.125346183776855,-0.31,-0.13,-0.13,0.36
10.136783123016357,-0.3,-0.15,-0.12,0.35
10.145305156707764,-0.28,-0.2,-0.16,0.37
10.157677173614502,-0.24,-0.26,-0.15,0.38
10.165290117263794,-0.23,-0.3,-0.12,0.39
10.175487041473389,-0.21,-0.34,-0.1,0.41
10.185673236846924,-0.18,-0.41,-0.1,0.45
10.195250988006592,-0.16,-0.44,-0.06,0.47
10.207793235778809,-0.15,-0.53,-0.03,0.55
10.214465141296387,-0.15,-0.64,-0.08,0.66
10.225149154663086,-0.12,-0.73,-0.07,0.74
10.236361980438232,-0.12,-0.83,-0.03,0.83
10.245233058929443,-0.16,-0.89,-0.03,0.9
10.256494045257568,-0.18,-0.95,0.02,0.96
10.264384031295776,-0.22,-1.02,0.0,1.04
10.275212049484253,-0.26,-1.1,-0.04,1.13
10.286133050918579,-0.29,-1.19,-0.03,1.22
10.295094013214111,-0.29,-1.21,-0.01,1.24
10.308617115020752,-0.25,-1.18,-0.02,1.2
10.314284086227417,-0.17,-1.18,-0.04,1.19
10.324932098388672,-0.13,-1.21,-0.1,1.22
10.336685180664062,-0.11,-1.29,-0.15,1.3
10.34448504447937,-0.11,-1.33,-0.16,1.34
10.35829496383667,-0.13,-1.33,-0.19,1.34
10.364327907562256,-0.13,-1.33,-0.23,1.35
10.374774932861328,-0.1,-1.38,-0.26,1.4
10.38633108139038,-0.05,-1.47,-0.26,1.49
10.395158052444458,0.0,-1.54,-0.2,1.55
10.407496929168701,0.0,-1.54,-0.12,1.54
10.414133071899414,-0.09,-1.59,-0.09,1.59
10.424564123153687,-0.19,-1.7,-0.13,1.71
10.436140060424805,-0.24,-1.81,-0.15,1.83
10.444955110549927,-0.25,-1.9,-0.16,1.92
10.45763611793518,-0.29,-1.96,-0.18,1.98
10.463808059692383,-0.33,-2.06,-0.14,2.09
10.474462032318115,-0.28,-2.09,-0.08,2.11
10.486479043960571,-0.19,-2.1,0.0,2.1
10.49422311782837,-0.22,-2.11,0.08,2.12
10.50741195678711,-0.36,-2.18,0.07,2.21
10.513747215270996,-0.5,-2.37,0.12,2.42
10.52428913116455,-0.51,-2.46,0.41,2.54
10.53649091720581,-0.45,-2.44,0.45,2.52
10.544686079025269,-0.29,-2.45,0.27,2.48
10.556437015533447,-0.12,-2.65,0.02,2.65
10.563573122024536,-0.14,-2.89,-0.24,2.9
10.574224948883057,-0.15,-3.04,-0.53,3.08
10.584137916564941,-0.12,-3.13,-0.71,3.21
10.594090938568115,-0.08,-3.12,-0.76,3.21
10.608272075653076,-0.09,-2.97,-0.86,3.09
10.61397123336792,-0.17,-2.76,-0.96,2.92
10.623914241790771,-0.2,-2.42,-0.88,2.58
10.633963108062744,-0.09,-2.04,-0.44,2.08
10.643778085708618,0.12,-1.65,0.04,1.65
10.65790319442749,0.24,-1.24,0.27,1.29
10.663727045059204,0.2,-0.89,0.33,0.97
10.673839092254639,0.18,-0.56,0.29,0.65
10.684235095977783,0.17,-0.17,0.19,0.3
10.694361209869385,0.2,0.26,0.17,0.36
10.706524133682251,0.4,0.7,0.38,0.89
10.713212013244629,0.46,1.07,0.59,1.3
10.7235689163208,0.29,1.37,0.7,1.56
10.733578205108643,0.08,1.55,0.82,1.75
10.743511199951172,-0.08,1.66,0.67,1.79
10.758538246154785,-0.03,1.74,0.1,1.74
10.763469219207764,0.11,1.7,-0.33,1.73
10.773608207702637,0.31,1.65,-0.41,1.72
10.783416032791138,0.44,1.62,-0.6,1.78
10.793517112731934,0.47,1.58,-0.68,1.78
10.80738115310669,0.44,1.62,-0.59,1.77
10.81284213066101,0.33,1.76,-0.41,1.83
10.822891235351562,0.29,2.01,-0.31,2.05
10.833354949951172,0.31,2.29,-0.21,2.32
10.843183040618896,0.28,2.35,0.03,2.36
10.857464075088501,0.16,2.35,0.31,2.37
10.86266803741455,0.01,2.43,0.41,2.46
10.873300075531006,-0.05,2.61,0.46,2.65
10.883063077926636,-0.07,2.7,0.52,2.75
10.893192052841187,-0.03,2.57,0.49,2.61
10.907945156097412,0.02,2.35,0.37,2.37
10.91304612159729,-0.05,2.16,0.27,2.17
10.923043251037598,-0.08,2.1,0.08,2.1
10.933515071868896,-0.21,2.18,-0.1,2.19
10.94348406791687,-0.22,2.36,-0.2,2.37
10.959414958953857,-0.23,2.54,-0.15,2.55
10.962342023849487,-0.22,2.65,-0.1,2.66
10.972969055175781,-0.12,2.7,0.1,2.7
10.983033180236816,-0.08,2.7,0.33,2.72
10.993224143981934,-0.01,2.7,0.53,2.75
11.008418083190918,0.03,2.63,0.65,2.7
11.012738227844238,0.04,2.53,0.75,2.63
11.022922992706299,0.09,2.42,0.84,2.56
11.033062934875488,0.15,2.2,0.68,2.3
11.043344974517822,0.12,1.89,0.43,1.94
11.057796955108643,0.22,1.56,0.34,1.61
11.062040090560913,0.25,1.3,0.27,1.35
11.07243824005127,0.2,1.1,0.27,1.15
11.082793235778809,0.06,1.03,0.36,1.09
11.092638969421387,-0.19,1.04,0.38,1.12
11.10857605934143,-0.44,1.03,0.38,1.18
11.111814022064209,-0.57,0.92,0.39,1.15
11.122427940368652,-0.55,0.81,0.45,1.07
11.13277006149292,-0.46,0.71,0.42,0.94
11.14238691329956,-0.41,0.6,0.41,0.83
11.157963037490845,-0.4,0.58,0.45,0.83
11.161587238311768,-0.43,0.55,0.42,0.81
11.172426223754883,-0.47,0.6,0.43,0.87
11.181822061538696,-0.47,0.65,0.51,0.95
11.192186117172241,-0.42,0.65,0.61,0.98
11.208316087722778,-0.38,0.65,0.75,1.06
11.21227216720581,-0.37,0.69,0.73,1.07
11.222133159637451,-0.37,0.7,0.64,1.01
11.232551097869873,-0.34,0.55,0.52,0.82
11.242637157440186,-0.29,0.41,0.35,0.61
11.25871992111206,-0.23,0.37,0.21,0.48
11.261442184448242,-0.22,0.34,0.1,0.41
11.272109985351562,-0.28,0.32,0.09,0.43
11.281915187835693,-0.29,0.32,0.05,0.43
11.292083024978638,-0.31,0.32,0.05,0.44
11.307940006256104,-0.29,0.29,0.09,0.41
11.311243057250977,-0.22,0.29,0.12,0.38
11.321829080581665,-0.19,0.27,0.13,0.35
11.332196235656738,-0.16,0.2,0.09,0.27
11.34228801727295,-0.2,0.13,0.05,0.24
11.357322216033936,-0.24,0.05,0.05,0.25
11.36109709739685,-0.3,-0.02,0.04,0.3
11.371674060821533,-0.31,-0.02,-0.01,0.31
11.381302118301392,-0.28,-0.02,-0.06,0.28
11.392251014709473,-0.22,-0.03,-0.08,0.23
11.408996105194092,-0.2,0.01,-0.05,0.2
11.410755157470703,-0.22,0.03,-0.05,0.22
11.421597003936768,-0.24,0.05,-0.09,0.26
11.431437015533447,-0.26,0.04,-0.13,0.29
11.44206714630127,-0.21,0.02,-0.1,0.23
11.460690021514893,-0.13,0.02,-0.02,0.13
11.462155103683472,-0.07,0.04,0.02,0.08
11.471482038497925,-0.11,0.05,0.08,0.14
11.481276035308838,-0.19,0.07,0.1,0.22
11.492078065872192,-0.25,0.1,0.09,0.28
11.509541988372803,-0.24,0.09,0.08,0.26
11.510674953460693,-0.21,0.12,0.01,0.24
11.52120304107666,-0.12,0.12,-0.02,0.17
11.531174182891846,-0.06,0.16,-0.07,0.18
11.541729927062988,-0.04,0.22,-0.15,0.26
11.557651042938232,-0.1,0.29,-0.23,0.38
11.560516119003296,-0.16,0.36,-0.36,0.53
11.571057081222534,-0.17,0.36,-0.5,0.63
11.58085012435913,-0.18,0.3,-0.56,0.66
11.591124057769775,-0.16,0.28,-0.55,0.63
11.608304023742676,-0.05,0.32,-0.53,0.62
11.610329151153564,0.08,0.35,-0.48,0.59
11.621016025543213,0.17,0.33,-0.49,0.61
11.630727052688599,0.2,0.31,-0.42,0.55
11.641473054885864,0.18,0.34,-0.28,0.47
11.657514095306396,0.12,0.34,-0.15,0.39
11.660099983215332,0.04,0.34,-0.09,0.35
11.670852184295654,-0.01,0.31,-0.09,0.32
11.680670022964478,0.0,0.27,-0.1,0.28
11.69138503074646,0.04,0.25,-0.09,0.26
11.700565099716187,0.12,0.23,-0.06,0.26
11.71019697189331,0.2,0.23,-0.05,0.3
11.720742225646973,0.3,0.26,0.01,0.39
11.730506896972656,0.36,0.29,0.08,0.46
11.740403175354004,0.43,0.29,0.17,0.54
11.750699996948242,0.48,0.26,0.31,0.62
11.759856224060059,0.53,0.26,0.37,0.69
11.770337104797363,0.58,0.26,0.37,0.73
11.780195236206055,0.57,0.18,0.39,0.71
11.790897130966187,0.6,0.14,0.43,0.75
11.8003671169281,0.65,0.1,0.39,0.76
11.809875011444092,0.72,0.05,0.38,0.81
11.820591926574707,0.82,-0.01,0.37,0.89
11.830111026763916,0.96,-0.11,0.39,1.04
11.840774059295654,1.05,-0.16,0.41,1.13
11.85014820098877,1.12,-0.15,0.33,1.17
11.859697103500366,1.11,-0.19,0.22,1.14
11.870399951934814,1.08,-0.22,0.16,1.11
11.879866123199463,1.12,-0.18,0.14,1.14
11.890707969665527,1.18,-0.21,0.01,1.19
11.900077104568481,1.14,-0.26,-0.1,1.17
11.909619092941284,1.12,-0.21,0.0,1.13
11.92013692855835,1.13,-0.11,0.11,1.14
11.929858207702637,1.15,-0.08,0.12,1.15
11.939963102340698,1.22,-0.11,0.13,1.23
11.95042896270752,1.35,-0.22,0.15,1.37
11.959400177001953,1.41,-0.39,0.1,1.46
11.970101118087769,1.5,-0.45,0.12,1.57
11.979712009429932,1.6,-0.46,0.1,1.66
11.989952087402344,1.66,-0.48,0.03,1.72
11.999675035476685,1.68,-0.5,-0.12,1.75
12.009138107299805,1.71,-0.5,-0.32,1.81
12.019666194915771,1.69,-0.5,-0.51,1.83
12.029609203338623,1.58,-0.49,-0.63,1.77
12.039679050445557,1.52,-0.42,-0.68,1.71
12.050235033035278,1.42,-0.35,-0.8,1.66
12.059570074081421,1.29,-0.3,-0.84,1.56
12.06975507736206,1.3,-0.13,-0.63,1.45
12.079514980316162,1.33,0.04,-0.61,1.46
12.089632987976074,1.43,0.22,-0.81,1.65
12.099468231201172,1.52,0.28,-0.99,1.83
12.108992099761963,1.58,0.24,-1.12,1.95
12.119349956512451,1.64,0.21,-1.03,1.94
12.129602909088135,1.71,0.22,-0.65,1.84
12.139273166656494,1.68,0.22,-0.29,1.71
12.149876117706299,1.5,0.26,0.02,1.52
12.159166097640991,1.24,0.26,0.22,1.28
12.16939115524292,0.89,0.24,0.3,0.96
12.179174900054932,0.56,0.26,0.11,0.62
12.189357042312622,0.4,0.24,-0.15,0.49
12.199097156524658,0.42,0.22,-0.28,0.55
12.208845138549805,0.57,0.34,-0.34,0.74
12.219257116317749,0.73,0.55,-0.25,0.94
12.22858715057373,0.81,0.71,-0.23,1.1
12.238238096237183,0.8,0.64,-0.38,1.09
12.248226165771484,0.87,0.36,-0.42,1.03
12.259661197662354,1.01,0.19,-0.04,1.02
12.270577907562256,1.07,0.13,0.09,1.08
12.279513120651245,0.89,0.06,0.0,0.89
12.289362907409668,0.73,0.06,0.07,0.73
12.299331188201904,0.62,0.03,0.18,0.64
12.309688091278076,0.43,-0.1,0.09,0.45
12.31942105293274,0.24,-0.18,-0.12,0.32
12.328903198242188,0.09,-0.21,-0.34,0.4
12.338796138763428,0.04,-0.26,-0.56,0.61
12.348503112792969,0.1,-0.26,-0.62,0.67
12.358314037322998,0.26,-0.26,-0.66,0.75
12.368903160095215,0.46,-0.26,-0.62,0.81
12.378645896911621,0.52,-0.21,-0.63,0.84
12.389316082000732,0.54,-0.17,-0.49,0.74
12.398932933807373,0.68,-0.08,-0.05,0.68
12.408759117126465,0.92,0.07,0.19,0.94
12.41935110092163,0.95,0.08,0.08,0.95
12.428479194641113,0.74,-0.02,-0.1,0.74
12.439164161682129,0.37,-0.15,-0.17,0.43
12.44887399673462,-0.06,-0.35,-0.08,0.36
12.460022926330566,-0.44,-0.55,0.06,0.7
12.469037055969238,-0.88,-0.56,0.12,1.04
12.478241920471191,-1.16,-0.66,-0.2,1.34
12.488390922546387,-1.21,-0.76,-0.11,1.43
12.498119115829468,-1.12,-0.64,0.47,1.37
12.507891178131104,-1.04,-0.34,0.73,1.31
12.518970012664795,-0.97,-0.07,0.57,1.12
12.527959108352661,-1.03,-0.07,0.45,1.12
12.53830099105835,-1.11,-0.14,0.5,1.22
12.548069953918457,-1.23,-0.03,0.46,1.31
12.55784797668457,-1.63,0.11,0.48,1.7
12.569152116775513,-2.16,0.16,0.6,2.24
12.57780122756958,-2.73,0.18,0.7,2.82
12.588138103485107,-3.19,0.15,0.83,3.29
12.597862243652344,-3.48,0.09,1.1,3.65
12.607409954071045,-3.73,0.09,1.3,3.95
12.618721961975098,-3.85,0.09,1.36,4.08
12.627914905548096,-3.78,0.03,1.44,4.04
12.637871026992798,-3.64,-0.1,1.56,3.96
12.647753238677979,-3.61,-0.12,1.51,3.91
12.65720796585083,-3.54,0.0,1.44,3.82
12.668321132659912,-3.54,0.06,1.34,3.78
12.677664041519165,-3.48,0.1,1.3,3.71
12.687807083129883,-3.38,0.13,1.29,3.62
12.697498083114624,-3.26,0.12,1.28,3.5
12.70767593383789,-3.15,0.14,1.19,3.37
12.717461109161377,-3.06,0.12,1.12,3.26
12.72759199142456,-2.97,0.02,1.04,3.14
12.737713098526001,-2.77,-0.04,0.88,2.9
12.74742317199707,-2.48,-0.11,0.72,2.58
12.758647918701172,-2.21,-0.15,0.52,2.27
12.767273902893066,-1.95,-0.15,0.3,1.97
12.777491092681885,-1.73,-0.14,0.16,1.74
12.787574052810669,-1.58,-0.05,0.0,1.58
12.797243118286133,-1.52,0.07,-0.21,1.53
12.807634115219116,-1.49,0.08,-0.34,1.53
12.817380905151367,-1.42,0.12,-0.41,1.48
12.82729721069336,-1.36,0.18,-0.45,1.44
12.837476253509521,-1.27,0.15,-0.47,1.36
12.847140073776245,-1.23,0.0,-0.41,1.29
12.857747077941895,-1.12,-0.1,-0.37,1.18
12.867094039916992,-0.96,-0.18,-0.39,1.05
12.876888036727905,-0.81,-0.2,-0.39,0.92
12.8873929977417,-0.72,-0.09,-0.31,0.78
12.896862983703613,-0.72,0.03,-0.34,0.79
12.908370971679688,-0.69,0.14,-0.36,0.79
12.916807174682617,-0.66,0.22,-0.31,0.76
12.927177906036377,-0.63,0.26,-0.28,0.73
12.937146186828613,-0.56,0.26,-0.2,0.64
12.946891069412231,-0.52,0.19,-0.1,0.56
12.958466053009033,-0.44,0.13,-0.01,0.45
12.966926097869873,-0.39,0.08,0.05,0.4
12.97700023651123,-0.35,0.03,0.07,0.35
12.987010955810547,-0.31,-0.04,0.1,0.32
12.996647119522095,-0.27,-0.06,0.13,0.3
13.009469985961914,-0.28,-0.01,0.09,0.29
13.016579151153564,-0.29,0.02,0.04,0.29
13.026737213134766,-0.25,0.0,-0.03,0.25
13.036564111709595,-0.24,0.0,-0.04,0.24
13.046294212341309,-0.24,0.06,-0.03,0.24
13.057905197143555,-0.2,0.06,-0.05,0.21
13.066762924194336,-0.18,0.05,-0.06,0.19
13.076179027557373,-0.17,0.05,-0.06,0.18
13.086617946624756,-0.18,0.08,-0.05,0.2
13.09634017944336,-0.19,0.12,-0.04,0.22
13.10830307006836,-0.22,0.16,0.0,0.27
13.116178035736084,-0.21,0.17,0.01,0.27
13.126516103744507,-0.16,0.15,-0.03,0.22
13.137097120285034,-0.11,0.13,-0.05,0.17
13.146337032318115,-0.18,0.1,-0.03,0.2
13.158298969268799,-0.24,0.09,-0.02,0.25
13.166044235229492,-0.3,0.09,-0.03,0.31
13.176155090332031,-0.3,0.02,-0.02,0.3
13.186229228973389,-0.3,-0.05,0.0,0.3
13.195853233337402,-0.28,-0.08,0.0,0.29
13.208133220672607,-0.27,-0.06,0.01,0.27
13.21552324295044,-0.3,-0.03,0.01,0.3
13.226130962371826,-0.31,0.03,-0.04,0.31
13.236924171447754,-0.33,0.05,-0.04,0.33
13.245840072631836,-0.32,0.11,-0.03,0.33
13.258179187774658,-0.3,0.16,-0.02,0.34
13.26536512374878,-0.32,0.15,0.02,0.35
13.275767087936401,-0.32,0.08,0.06,0.33
13.28588604927063,-0.3,0.08,0.13,0.33
13.295709133148193,-0.24,0.13,0.14,0.3
13.308401107788086,-0.24,0.16,0.16,0.32
13.315629005432129,-0.29,0.17,0.17,0.37
13.325935125350952,-0.26,0.15,0.15,0.33
13.336472034454346,-0.25,0.12,0.15,0.31
13.345366954803467,-0.25,0.17,0.15,0.33
13.358136177062988,-0.25,0.21,0.14,0.35
13.365540981292725,-0.27,0.25,0.15,0.39
13.375701904296875,-0.23,0.26,0.12,0.36
13.386203050613403,-0.16,0.23,0.07,0.28
13.395254135131836,-0.16,0.18,0.04,0.24
13.407945156097412,-0.14,0.2,0.05,0.24
13.415541172027588,-0.15,0.22,0.06,0.27
13.425525188446045,-0.12,0.24,0.07,0.27
13.436299085617065,-0.1,0.26,0.09,0.29
13.445333003997803,-0.12,0.36,0.11,0.39
13.45802903175354,-0.21,0.47,0.13,0.53
13.46493911743164,-0.25,0.52,0.09,0.58
13.475191116333008,-0.25,0.54,0.08,0.6
13.485957145690918,-0.2,0.59,0.11,0.63
13.495184898376465,-0.17,0.68,0.13,0.71
13.507247924804688,-0.11,0.7,0.13,0.72
13.514475107192993,-0.07,0.76,0.13,0.77
13.525249004364014,-0.1,0.85,0.11,0.86
13.535998106002808,-0.17,0.97,0.06,0.98
13.545051097869873,-0.22,1.03,0.04,1.05
13.557526111602783,-0.26,1.07,-0.01,1.1
13.564656019210815,-0.3,1.12,-0.03,1.15
13.575074195861816,-0.35,1.19,-0.05,1.24
13.586229085922241,-0.37,1.22,-0.07,1.27
13.594882011413574,-0.42,1.28,-0.08,1.34
13.607551097869873,-0.49,1.36,-0.05,1.44
13.614387035369873,-0.55,1.43,0.01,1.53
13.624994039535522,-0.58,1.45,0.03,1.56
13.635906219482422,-0.58,1.47,0.04,1.58
13.64478611946106,-0.56,1.49,0.05,1.59
13.657503128051758,-0.58,1.52,0.07,1.62
13.664222240447998,-0.63,1.59,0.12,1.71
13.674711227416992,-0.67,1.65,0.18,1.78
13.686376094818115,-0.7,1.67,0.2,1.82
13.694605112075806,-0.77,1.65,0.25,1.83
13.70795202255249,-0.77,1.62,0.27,1.81
13.713895082473755,-0.8,1.6,0.27,1.8
13.724525928497314,-0.81,1.55,0.34,1.78
13.736009120941162,-0.81,1.5,0.4,1.75
13.743866920471191,-0.81,1.49,0.51,1.77
13.75749921798706,-0.84,1.48,0.58,1.79
13.763921022415161,-0.94,1.54,0.68,1.92
13.774450063705444,-1.09,1.56,0.72,2.03
13.786159038543701,-1.19,1.52,0.76,2.07
13.793684005737305,-1.14,1.51,0.82,2.06
13.807429075241089,-1.09,1.51,0.79,2.02
13.813529968261719,-1.09,1.51,0.77,2.01
13.824353218078613,-1.05,1.47,0.64,1.91
13.83412790298462,-0.95,1.36,0.48,1.72
13.844418048858643,-0.84,1.3,0.37,1.59
13.853701114654541,-0.78,1.31,0.25,1.54
13.86410403251648,-0.73,1.26,0.26,1.47
13.874173164367676,-0.67,1.22,0.18,1.4
13.884154081344604,-0.58,1.18,0.07,1.31
13.895256042480469,-0.56,1.14,0.04,1.27
13.903592109680176,-0.56,1.12,-0.03,1.25
13.913844108581543,-0.58,1.11,0.0,1.25
13.923932075500488,-0.62,1.11,0.09,1.27
13.933867931365967,-0.66,1.1,0.16,1.29
13.944355010986328,-0.64,1.06,0.16,1.24
13.953671932220459,-0.55,0.98,0.14,1.13
13.963773250579834,-0.47,0.85,0.06,0.97
13.973831176757812,-0.46,0.83,0.04,0.94
13.983757019042969,-0.5,0.85,0.02,0.98
13.99430513381958,-0.59,0.85,0.07,1.03
14.00351095199585,-0.7,0.77,0.12,1.04
14.013419151306152,-0.77,0.68,0.12,1.03
14.023783206939697,-0.85,0.6,0.16,1.05
14.033448219299316,-0.93,0.49,0.17,1.06
14.04419207572937,-0.98,0.34,0.1,1.04
14.053194046020508,-0.96,0.26,0.05,0.99
14.063278198242188,-0.97,0.2,0.07,0.99
14.07371211051941,-1.0,0.12,0.03,1.0
14.084058046340942,-1.05,0.07,0.07,1.05
14.097125053405762,-1.13,0.0,0.13,1.13
14.103094100952148,-1.15,-0.08,0.05,1.15
14.113210201263428,-1.05,-0.24,0.03,1.07
14.12345004081726,-0.97,-0.4,0.04,1.05
14.13366413116455,-0.91,-0.54,-0.06,1.05
14.144742965698242,-0.89,-0.66,-0.16,1.11
14.152990102767944,-0.87,-0.79,-0.23,1.19
14.16274118423462,-0.82,-0.86,-0.31,1.22
14.173293113708496,-0.71,-0.96,-0.47,1.28
14.183051109313965,-0.55,-1.03,-0.5,1.27
14.194082021713257,-0.43,-1.11,-0.55,1.31
14.202603101730347,-0.38,-1.2,-0.55,1.37
14.212985038757324,-0.31,-1.22,-0.49,1.35
14.223088026046753,-0.28,-1.24,-0.44,1.34
14.233521938323975,-0.16,-1.39,-0.33,1.43
14.24548602104187,0.02,-1.58,-0.25,1.59
14.252591133117676,0.21,-1.71,-0.11,1.72
14.262884140014648,0.34,-1.8,-0.05,1.83
14.272956132888794,0.41,-1.84,0.0,1.88
14.28328800201416,0.54,-1.97,0.17,2.04
14.29480791091919,0.71,-2.02,0.26,2.15
14.302508115768433,0.79,-1.88,0.48,2.09
14.312577247619629,0.79,-1.73,0.3,1.92
14.322885036468506,0.8,-1.85,-0.22,2.02
14.332621097564697,0.87,-2.12,-0.19,2.29
14.343424081802368,0.88,-2.28,0.2,2.45
14.352259159088135,0.87,-2.18,0.08,2.34
14.362515926361084,0.83,-1.96,0.17,2.13
14.372582912445068,0.77,-1.82,0.24,1.99
14.382487058639526,0.65,-1.76,0.23,1.89
14.393335103988647,0.51,-1.74,0.21,1.82
14.402271032333374,0.47,-1.67,0.18,1.74
14.411965131759644,0.49,-1.58,0.14,1.66
14.422111988067627,0.58,-1.52,0.07,1.62
14.431979179382324,0.62,-1.52,-0.03,1.64
14.442429065704346,0.65,-1.47,-0.09,1.6
14.4519362449646,0.61,-1.32,-0.16,1.46
14.461887121200562,0.46,-1.15,-0.2,1.25
14.472389221191406,0.36,-1.14,-0.26,1.22
14.482079982757568,0.32,-1.17,-0.24,1.23
14.49291205406189,0.31,-1.2,-0.25,1.26
14.501806020736694,0.37,-1.21,-0.28,1.29
14.512028217315674,0.35,-1.23,-0.21,1.29
14.522264003753662,0.21,-1.16,-0.15,1.18
14.532447099685669,0.13,-1.04,-0.18,1.06
14.544071197509766,0.14,-0.95,-0.21,0.98
14.55173110961914,0.13,-0.9,-0.21,0.93
14.562035083770752,0.12,-0.88,-0.22,0.91
14.572034120559692,0.08,-0.79,-0.18,0.81
14.582443237304688,0.1,-0.72,-0.16,0.74
14.59580111503601,0.11,-0.64,-0.14,0.66
14.60178804397583,0.08,-0.59,-0.18,0.62
14.611830234527588,0.12,-0.53,-0.23,0.59
14.621916055679321,0.13,-0.51,-0.27,0.59
14.632174968719482,0.06,-0.45,-0.29,0.53
14.644166946411133,0.01,-0.39,-0.29,0.48
14.651645183563232,-0.04,-0.34,-0.3,0.45
14.661587238311768,-0.06,-0.31,-0.33,0.45
14.671536922454834,-0.05,-0.3,-0.33,0.44
14.682114124298096,-0.08,-0.27,-0.31,0.41
14.693862915039062,-0.06,-0.22,-0.26,0.34
14.702017068862915,-0.11,-0.14,-0.21,0.27
14.710962057113647,-0.21,-0.11,-0.18,0.29
14.72190523147583,-0.23,-0.09,-0.12,0.27
14.731306076049805,-0.22,-0.1,-0.05,0.24
14.742192029953003,-0.23,-0.09,0.1,0.26
14.751960039138794,-0.2,-0.04,0.21,0.29
14.760945081710815,-0.22,0.03,0.23,0.31
14.771452903747559,-0.23,0.09,0.25,0.35
14.781191110610962,-0.24,0.15,0.24,0.37
14.792140007019043,-0.19,0.15,0.19,0.3
14.801761150360107,-0.14,0.14,0.18,0.26
14.81058120727539,-0.14,0.15,0.11,0.23
14.821186065673828,-0.15,0.14,0.11,0.23
14.83139419555664,-0.17,0.1,0.11,0.22
14.842921018600464,-0.24,0.08,0.13,0.28
14.851905107498169,-0.29,0.1,0.15,0.34
14.860549926757812,-0.32,0.14,0.16,0.38
14.871137142181396,-0.32,0.2,0.12,0.39
14.880796909332275,-0.3,0.23,0.11,0.39
14.892883062362671,-0.19,0.21,0.1,0.3
14.90196704864502,-0.11,0.17,0.06,0.21
14.910821914672852,-0.06,0.14,-0.02,0.15
14.921226978302002,-0.05,0.17,-0.09,0.19
14.931321144104004,-0.11,0.24,-0.1,0.28
14.94609808921814,-0.2,0.3,-0.11,0.37
14.950257062911987,-0.24,0.28,-0.11,0.38
14.960869073867798,-0.21,0.2,-0.09,0.3
14.970930099487305,-0.17,0.13,-0.06,0.22
14.980587005615234,-0.11,0.12,-0.02,0.16
14.993498086929321,-0.09,0.13,0.05,0.16
15.00030517578125,-0.12,0.15,0.1,0.21
15.010612964630127,-0.24,0.2,0.14,0.34
15.020946025848389,-0.32,0.25,0.21,0.45
15.030936241149902,-0.36,0.28,0.25,0.52
15.044552087783813,-0.33,0.22,0.28,0.48
15.050081253051758,-0.28,0.16,0.3,0.44
15.06059217453003,-0.26,0.12,0.26,0.38
15.070831060409546,-0.29,0.1,0.21,0.37
15.08097219467163,-0.35,0.12,0.16,0.4
15.094679117202759,-0.37,0.14,0.13,0.41
15.099912166595459,-0.32,0.14,0.08,0.35
15.109766960144043,-0.32,0.12,0.03,0.34
15.120718002319336,-0.31,0.08,-0.02,0.32
15.13001823425293,-0.32,0.02,0.01,0.32
15.143256187438965,-0.39,0.01,0.02,0.39
15.149672985076904,-0.46,0.03,-0.01,0.46
15.159786224365234,-0.48,-0.01,-0.05,0.48
15.170143127441406,-0.52,-0.01,-0.02,0.52
15.180524110794067,-0.58,-0.02,0.01,0.58
15.192821025848389,-0.63,-0.03,-0.02,0.63
15.199522972106934,-0.69,-0.01,-0.03,0.69
15.209619045257568,-0.74,-0.02,-0.04,0.74
15.220051050186157,-0.74,0.0,-0.07,0.74
15.229921102523804,-0.76,0.06,-0.08,0.76
15.24058198928833,-0.8,0.16,-0.07,0.81
15.249304056167603,-0.86,0.31,-0.04,0.91
15.259397983551025,-0.92,0.44,-0.04,1.02
15.26996111869812,-0.96,0.52,-0.03,1.09
15.279384136199951,-1.03,0.52,-0.03,1.15
15.290328979492188,-1.13,0.47,-0.06,1.22
15.299230098724365,-1.31,0.35,-0.01,1.35
15.309345245361328,-1.49,0.19,0.04,1.5
15.31987190246582,-1.47,0.0,0.14,1.47
15.329641103744507,-1.52,-0.17,0.24,1.54
15.341338157653809,-1.55,-0.24,0.32,1.6
15.349080085754395,-1.47,-0.25,0.38,1.53
15.359632968902588,-1.43,-0.17,0.44,1.5
15.369696140289307,-1.48,-0.1,0.45,1.55
15.379365921020508,-1.49,-0.06,0.44,1.55
15.392583131790161,-1.5,0.03,0.58,1.6
15.399006128311157,-1.49,0.17,0.62,1.62
15.409542083740234,-1.44,0.29,0.59,1.58
15.419857025146484,-1.31,0.31,0.58,1.46
15.429281234741211,-1.19,0.26,0.55,1.33
15.442974090576172,-1.14,0.26,0.49,1.26
15.448800086975098,-1.12,0.34,0.41,1.24
15.45944595336914,-1.13,0.47,0.35,1.27
15.46973204612732,-1.14,0.57,0.3,1.3
15.479345083236694,-1.14,0.57,0.23,1.29
15.492373943328857,-1.05,0.42,0.08,1.13
15.498714923858643,-0.95,0.31,0.06,1.0
15.508640050888062,-1.02,0.37,0.08,1.08
15.519442081451416,-1.2,0.47,0.03,1.28
15.528929233551025,-1.33,0.46,0.08,1.4
15.542477130889893,-1.43,0.4,0.16,1.49
15.548501014709473,-1.41,0.31,0.17,1.45
15.558866024017334,-1.36,0.26,0.17,1.39
15.56922721862793,-1.35,0.23,0.12,1.37
15.578842163085938,-1.31,0.26,0.05,1.33
15.592185020446777,-1.23,0.28,-0.05,1.26
15.59941816329956,-1.13,0.33,-0.04,1.17
15.60842514038086,-1.05,0.37,-0.13,1.12
15.619139194488525,-1.02,0.35,-0.26,1.1
15.628729104995728,-1.06,0.26,-0.39,1.15
15.642044067382812,-1.15,0.13,-0.49,1.25
15.648177146911621,-1.29,0.09,-0.52,1.39
15.65882921218872,-1.39,0.13,-0.53,1.49
15.669403076171875,-1.39,0.08,-0.56,1.5
15.678995132446289,-1.27,-0.08,-0.56,1.39
15.694197177886963,-1.18,-0.17,-0.5,1.29
15.698153972625732,-1.22,-0.21,-0.51,1.33
15.7085440158844,-1.32,-0.24,-0.39,1.39
15.71936321258545,-1.36,-0.13,-0.27,1.39
15.728341102600098,-1.32,-0.08,-0.16,1.33
15.743710041046143,-1.18,-0.1,-0.04,1.18
15.747891902923584,-0.97,-0.17,-0.08,0.98
15.758502006530762,-0.74,-0.22,-0.23,0.8
15.76969289779663,-0.59,-0.27,-0.33,0.72
15.778948068618774,-0.5,-0.23,-0.4,0.68
15.794012069702148,-0.45,-0.16,-0.47,0.67
15.79778003692627,-0.5,-0.11,-0.55,0.75
15.808266162872314,-0.52,-0.1,-0.54,0.75
15.8193039894104,-0.5,-0.07,-0.49,0.7
15.82791519165039,-0.43,-0.05,-0.49,0.65
15.843754053115845,-0.25,-0.15,-0.52,0.59
15.847641944885254,-0.06,-0.35,-0.62,0.71
15.858222007751465,0.08,-0.42,-0.58,0.72
15.869840145111084,0.16,-0.4,-0.53,0.68
15.877985954284668,0.2,-0.35,-0.55,0.68
15.892704963684082,0.25,-0.31,-0.48,0.62
15.897468090057373,0.37,-0.27,-0.5,0.67
15.907464981079102,0.57,-0.3,-0.55,0.84
15.91946005821228,0.81,-0.33,-0.55,1.03
15.92777395248413,1.01,-0.34,-0.53,1.19
15.943171977996826,1.16,-0.26,-0.5,1.28
15.947254180908203,1.33,-0.24,-0.46,1.42
15.957939147949219,1.46,-0.25,-0.38,1.52
15.969645977020264,1.51,-0.27,-0.35,1.57
15.97819209098816,1.52,-0.31,-0.37,1.59
15.9914231300354,1.51,-0.39,-0.37,1.6
15.997150897979736,1.47,-0.43,-0.33,1.56
16.007040977478027,1.48,-0.41,-0.33,1.57
16.018842220306396,1.61,-0.42,-0.35,1.7
16.027411937713623,1.7,-0.4,-0.33,1.77
16.042850017547607,1.72,-0.35,-0.2,1.76
16.04700517654419,1.81,-0.22,-0.07,1.82
16.057146072387695,1.89,-0.1,0.04,1.89
16.06748914718628,1.9,-0.05,0.17,1.9
16.078007221221924,1.98,0.06,0.38,2.01
16.093081951141357,1.95,0.1,0.55,2.02
16.096874237060547,1.88,0.12,0.73,2.02
16.106943130493164,1.94,0.2,0.82,2.11
16.117159128189087,1.98,0.18,0.86,2.16
16.12733793258667,1.97,0.13,0.87,2.15
16.14300298690796,1.97,0.08,0.89,2.16
16.146591186523438,1.95,0.02,0.83,2.11
16.157294034957886,1.94,-0.06,0.67,2.05
16.167108058929443,1.95,-0.14,0.59,2.04
16.177256107330322,1.93,-0.12,0.63,2.03
16.193974018096924,1.89,0.05,0.72,2.02
16.196646213531494,1.74,0.16,0.7,1.88
16.207029104232788,1.57,0.21,0.63,1.7
16.21710705757141,1.41,0.22,0.57,1.53
16.226928234100342,1.32,0.24,0.54,1.44
16.242520093917847,1.32,0.29,0.41,1.41
16.246304988861084,1.3,0.24,0.31,1.35
16.256319046020508,1.18,0.24,0.26,1.23
16.266513109207153,1.01,0.35,0.21,1.08
16.276971101760864,0.86,0.45,0.12,0.97
16.2924861907959,0.73,0.43,0.05,0.84
16.296256065368652,0.63,0.39,-0.04,0.74
16.306291103363037,0.52,0.34,-0.09,0.62
16.316649913787842,0.45,0.27,-0.17,0.55
16.326897144317627,0.41,0.17,-0.18,0.47
16.340628147125244,0.32,0.07,-0.23,0.4
16.3458731174469,0.2,-0.02,-0.27,0.33
16.355850219726562,0.03,-0.03,-0.25,0.25
16.36568307876587,-0.13,-0.03,-0.19,0.23
16.376005172729492,-0.2,-0.05,-0.17,0.26
16.3946750164032,-0.23,-0.1,-0.14,0.28
16.39588499069214,-0.24,-0.12,-0.09,0.28
16.406156063079834,-0.24,-0.12,-0.06,0.27
16.41633415222168,-0.21,-0.11,-0.05,0.24
16.426384925842285,-0.2,-0.06,-0.04,0.21
16.445241928100586,-0.26,0.0,-0.02,0.26
16.44614005088806,-0.28,0.02,-0.02,0.28
16.45568609237671,-0.28,0.04,0.06,0.28
16.466033935546875,-0.26,0.06,0.11,0.28
16.47676110267639,-0.31,0.06,0.13,0.34
16.493597984313965,-0.34,0.04,0.14,0.36
16.49543309211731,-0.34,0.02,0.13,0.36
16.50560212135315,-0.35,0.02,0.11,0.36
16.51603603363037,-0.33,0.08,0.08,0.34
16.526100158691406,-0.28,0.11,0.07,0.3
16.542895078659058,-0.24,0.1,0.06,0.26
16.54539918899536,-0.21,0.12,0.02,0.24
16.555570125579834,-0.15,0.19,-0.01,0.24
16.5657958984375,-0.13,0.23,-0.05,0.26
16.57599115371704,-0.16,0.19,-0.09,0.26
16.591905117034912,-0.2,0.19,-0.13,0.3
16.595282077789307,-0.23,0.2,-0.14,0.33
16.605180025100708,-0.25,0.16,-0.14,0.32
16.615440130233765,-0.26,0.1,-0.14,0.31
16.62567901611328,-0.26,0.06,-0.15,0.3
16.64310121536255,-0.29,0.06,-0.1,0.31
16.644910097122192,-0.32,0.05,-0.1,0.33
16.655198097229004,-0.34,0.02,-0.07,0.34
16.66542911529541,-0.35,0.01,-0.05,0.35
16.67565393447876,-0.36,-0.01,-0.03,0.36
16.693727016448975,-0.34,-0.06,0.0,0.34
16.69493818283081,-0.36,-0.1,0.06,0.37
16.705102920532227,-0.38,-0.07,0.13,0.4
16.71540117263794,-0.37,-0.03,0.18,0.41
16.72541093826294,-0.33,-0.01,0.19,0.38
16.74289107322693,-0.29,-0.04,0.19,0.34
16.74449920654297,-0.22,-0.05,0.15,0.27
16.754995107650757,-0.17,0.0,0.1,0.19
16.76513910293579,-0.14,0.09,-0.04,0.17
16.775320053100586,-0.15,-0.07,0.05,0.17
16.793278217315674,-0.14,-0.18,0.05,0.23
16.79456901550293,-0.16,-0.1,0.04,0.19
16.804745197296143,-0.19,-0.03,-0.05,0.19
16.815136909484863,-0.22,-0.1,-0.06,0.24
16.825242042541504,-0.25,-0.22,-0.03,0.33
16.843817234039307,-0.25,-0.32,-0.03,0.4
16.84483504295349,-0.22,-0.41,-0.04,0.46
16.854727029800415,-0.19,-0.47,-0.09,0.51
16.864869117736816,-0.22,-0.57,-0.08,0.61
16.875110149383545,-0.26,-0.65,-0.04,0.7
16.894275188446045,-0.25,-0.7,-0.02,0.74
16.895263195037842,-0.22,-0.76,0.0,0.79
16.90435791015625,-0.22,-0.83,0.03,0.85
16.91493320465088,-0.19,-0.88,0.04,0.9
16.924827098846436,-0.14,-0.93,0.04,0.94
16.943628072738647,-0.11,-1.03,0.0,1.03
16.944613933563232,-0.08,-1.12,-0.06,1.12
16.954501152038574,-0.08,-1.21,-0.1,1.21
16.96447205543518,-0.1,-1.22,-0.14,1.23
16.97480297088623,-0.13,-1.16,-0.15,1.17
16.994619131088257,-0.12,-1.1,-0.1,1.11
16.995594024658203,-0.19,-1.04,-0.05,1.05
17.004319190979004,-0.28,-1.03,-0.06,1.06
17.014461994171143,-0.33,-1.05,-0.09,1.1
17.02442693710327,-0.38,-1.05,-0.18,1.13
17.043519020080566,-0.32,-1.06,-0.25,1.13
17.044400215148926,-0.27,-1.12,-0.25,1.17
17.054084062576294,-0.26,-1.17,-0.16,1.2
17.064417123794556,-0.29,-1.11,-0.14,1.15
17.07457709312439,-0.3,-1.1,-0.09,1.14
17.095798015594482,-0.23,-1.08,0.0,1.1
17.0967800617218,-0.17,-1.09,0.05,1.1
17.103958129882812,-0.16,-1.15,0.06,1.16
17.11433506011963,-0.21,-1.21,0.05,1.22
17.124251127243042,-0.33,-1.24,0.08,1.28
17.134011030197144,-0.41,-1.27,0.08,1.33
17.14399003982544,-0.37,-1.4,-0.06,1.44
17.15394902229309,-0.3,-1.62,-0.09,1.65
17.163820028305054,-0.3,-1.81,-0.02,1.83
17.17420506477356,-0.27,-1.96,0.12,1.98
17.184096097946167,-0.13,-2.14,0.38,2.17
17.193356037139893,-0.06,-2.4,0.78,2.52
17.203720092773438,-0.02,-2.63,0.89,2.77
17.213521003723145,-0.06,-2.56,0.81,2.68
17.22399616241455,-0.16,-2.2,0.75,2.32
17.234021186828613,-0.24,-1.72,0.79,1.9
17.244458198547363,-0.26,-1.32,0.85,1.59
17.253724098205566,-0.15,-1.04,0.9,1.38
17.263607025146484,0.06,-0.95,0.9,1.31
17.27389097213745,0.25,-0.91,0.78,1.22
17.283048152923584,0.31,-0.91,0.59,1.12
17.293208122253418,0.28,-0.87,0.42,1.0
17.303425073623657,0.23,-0.75,0.19,0.8
17.313560009002686,0.15,-0.72,0.04,0.73
17.323519229888916,0.05,-0.72,-0.03,0.72
17.333577156066895,0.0,-0.74,-0.06,0.74
17.34323024749756,-0.16,-0.82,-0.12,0.84
17.353217124938965,-0.42,-0.8,-0.24,0.93
17.362934112548828,-0.66,-0.76,-0.32,1.05
17.3731210231781,-0.82,-0.71,-0.31,1.12
17.383347988128662,-0.76,-0.56,-0.41,1.02
17.393051147460938,-0.55,-0.54,-0.59,0.97
17.403082132339478,-0.18,-0.59,-0.81,1.01
17.412984132766724,0.17,-0.58,-0.83,1.02
17.423391103744507,0.43,-0.47,-0.63,0.89
17.433289051055908,0.64,-0.27,-0.34,0.77
17.443676948547363,0.75,-0.03,-0.34,0.82
17.453026056289673,0.71,0.08,-0.43,0.83
17.463067054748535,0.61,0.1,-0.41,0.74
17.473307132720947,0.44,0.02,-0.37,0.57
17.483155250549316,0.17,-0.07,-0.31,0.36
17.4930100440979,-0.09,-0.08,-0.29,0.31
17.502868175506592,-0.18,-0.01,-0.36,0.4
17.512502193450928,-0.13,0.1,-0.5,0.52
17.52257490158081,-0.09,0.2,-0.78,0.81
17.532961130142212,0.02,0.3,-0.81,0.86
17.542858123779297,0.24,0.49,-0.65,0.84
17.552701950073242,0.6,0.74,-0.45,1.05
17.562283992767334,0.88,1.02,-0.29,1.37
17.572511196136475,1.02,1.19,-0.34,1.6
17.582691192626953,1.09,1.27,-0.41,1.72
17.593029022216797,1.13,1.26,-0.52,1.77
17.60244607925415,1.04,1.2,-0.77,1.76
17.61218810081482,0.8,1.18,-1.02,1.75
17.622826099395752,0.63,1.22,-1.11,1.76
17.632626056671143,0.42,1.26,-1.12,1.73
17.643474102020264,0.27,1.45,-1.01,1.78
17.652335166931152,0.19,1.73,-0.79,1.91
17.661951065063477,0.1,2.02,-0.6,2.1
17.672204971313477,-0.08,2.27,-0.27,2.28
17.682361125946045,-0.21,2.59,0.29,2.61
17.69363498687744,-0.13,3.04,0.88,3.16
17.702095985412598,-0.05,3.38,1.21,3.59
17.711942195892334,0.12,3.46,1.34,3.71
17.7226881980896,0.35,3.35,1.32,3.61
17.731916904449463,0.46,3.13,1.11,3.35
17.743078231811523,0.41,2.91,0.95,3.08
17.751938104629517,0.2,2.77,0.77,2.88
17.761778116226196,-0.05,2.73,0.67,2.81
17.77189803123474,-0.22,2.78,0.77,2.89
17.78203010559082,-0.29,2.87,1.02,3.05
17.793962955474854,-0.26,2.92,1.29,3.2
17.802096128463745,-0.1,2.88,1.48,3.23
17.811631202697754,0.02,2.65,1.5,3.04
17.822209119796753,0.14,2.39,1.36,2.75
17.831972122192383,0.36,2.21,1.18,2.53
17.844423055648804,0.43,1.97,0.87,2.19
17.8519549369812,0.29,1.75,0.47,1.83
17.861451148986816,0.04,1.59,0.11,1.59
17.872132062911987,-0.14,1.45,-0.14,1.46
17.881787061691284,-0.19,1.28,-0.22,1.31
17.89406394958496,-0.22,1.14,-0.22,1.18
17.901729106903076,-0.26,0.99,-0.14,1.03
17.911379098892212,-0.29,0.81,-0.1,0.86
17.921431064605713,-0.38,0.64,-0.06,0.74
17.932090044021606,-0.46,0.47,-0.07,0.66
17.943393230438232,-0.46,0.31,-0.14,0.57
17.951945066452026,-0.45,0.17,-0.18,0.51
17.96118712425232,-0.42,0.08,-0.11,0.44
17.97134804725647,-0.41,0.0,-0.09,0.41
17.98155403137207,-0.45,-0.04,-0.13,0.47
17.993331909179688,-0.52,0.0,-0.21,0.56
18.001835107803345,-0.56,0.03,-0.21,0.59
18.01101803779602,-0.55,0.09,-0.19,0.58
18.021148204803467,-0.49,0.12,-0.14,0.52
18.031558990478516,-0.42,0.13,-0.03,0.44
18.043246030807495,-0.38,0.16,0.02,0.41
18.052006244659424,-0.41,0.18,-0.06,0.45
18.060806035995483,-0.43,0.09,-0.17,0.47
18.071074962615967,-0.36,0.03,-0.15,0.39
18.081037998199463,-0.35,0.03,-0.06,0.35
18.09423589706421,-0.34,0.05,0.0,0.34
18.102018117904663,-0.36,0.11,0.03,0.37
18.110762119293213,-0.38,0.17,0.05,0.41
18.121262073516846,-0.38,0.12,0.06,0.4
18.130970001220703,-0.34,0.05,0.06,0.34
18.144232034683228,-0.29,0.04,0.04,0.29
18.151992082595825,-0.25,0.01,0.02,0.25
18.160542011260986,-0.18,-0.05,0.09,0.2
18.170804977416992,-0.16,-0.12,0.14,0.24
18.18089199066162,-0.15,-0.08,0.09,0.19
18.19447422027588,-0.15,-0.04,0.04,0.16
18.200511932373047,-0.17,0.01,0.06,0.18
18.210378170013428,-0.15,0.01,0.05,0.15
18.221217155456543,-0.14,0.04,0.02,0.14
18.230818033218384,-0.17,0.11,-0.04,0.2
18.244340896606445,-0.14,0.15,-0.03,0.2
18.250536918640137,-0.08,0.14,-0.05,0.16
18.260361194610596,-0.05,0.16,-0.11,0.2
18.27099108695984,-0.04,0.21,-0.14,0.25
18.28068709373474,-0.09,0.27,-0.18,0.33
18.293967247009277,-0.13,0.35,-0.25,0.44
18.30022621154785,-0.15,0.42,-0.31,0.54
18.31022596359253,-0.16,0.43,-0.36,0.58
18.320226192474365,-0.15,0.43,-0.45,0.64
18.330579042434692,-0.12,0.44,-0.55,0.71
18.34401512145996,-0.1,0.44,-0.62,0.76
18.35012412071228,-0.05,0.43,-0.66,0.78
18.360124111175537,-0.01,0.37,-0.64,0.73
18.37023901939392,0.01,0.32,-0.63,0.7
18.380023956298828,0.03,0.29,-0.53,0.6
18.393556118011475,0.0,0.29,-0.29,0.41
18.399940967559814,-0.08,0.28,-0.08,0.3
18.409982204437256,-0.14,0.32,0.09,0.36
18.42048215866089,-0.13,0.28,0.17,0.35
18.42955493927002,-0.13,0.2,0.22,0.32
18.443565130233765,-0.08,0.16,0.24,0.29
18.44973111152649,-0.03,0.1,0.22,0.24
18.459740161895752,0.03,0.03,0.25,0.25
18.46977710723877,0.04,0.01,0.3,0.3
18.479485988616943,0.04,0.0,0.33,0.33
18.493704080581665,0.02,0.01,0.34,0.34
18.49953603744507,-0.03,0.04,0.37,0.37
18.50969409942627,-0.05,0.06,0.38,0.38
18.519639015197754,-0.01,0.02,0.41,0.41
18.529476165771484,0.03,0.0,0.42,0.42
18.543704986572266,0.11,-0.02,0.38,0.39
18.549517154693604,0.13,-0.01,0.29,0.31
18.559444904327393,0.18,0.05,0.22,0.28
18.569473028182983,0.21,0.08,0.16,0.27
18.579230070114136,0.23,0.08,0.1,0.26
18.594532012939453,0.29,0.11,0.09,0.32
18.59900212287903,0.3,0.15,0.1,0.35
18.609792232513428,0.31,0.18,0.06,0.36
18.619338989257812,0.32,0.19,0.02,0.37
18.629690170288086,0.36,0.23,-0.01,0.42
18.644565105438232,0.43,0.23,-0.08,0.49
18.648921012878418,0.51,0.18,-0.19,0.57
18.659179210662842,0.57,0.15,-0.3,0.66
18.669257164001465,0.64,0.1,-0.35,0.73
18.679649114608765,0.75,0.11,-0.37,0.84
18.69432497024536,0.85,0.11,-0.4,0.94
18.698984146118164,0.94,0.09,-0.39,1.02
18.709084033966064,1.04,0.06,-0.34,1.09
18.71973705291748,1.09,0.07,-0.32,1.13
18.72861909866333,1.09,0.07,-0.34,1.14
18.743772983551025,1.11,0.07,-0.34,1.16
18.748850107192993,1.15,0.04,-0.32,1.19
18.758831024169922,1.19,0.02,-0.31,1.22
18.769201040267944,1.17,0.08,-0.31,1.21
18.778657913208008,1.19,0.15,-0.28,1.23
18.794023990631104,1.24,0.24,-0.28,1.29
18.79862403869629,1.26,0.36,-0.24,1.33
18.808653116226196,1.26,0.42,-0.13,1.33
18.81909203529358,1.2,0.47,-0.1,1.29
18.82842493057251,1.15,0.52,-0.1,1.26
18.843907117843628,1.06,0.49,-0.13,1.17
18.848248958587646,0.95,0.39,-0.22,1.05
18.858517169952393,0.78,0.21,-0.28,0.85
18.869407176971436,0.71,0.04,-0.26,0.75
18.878400087356567,0.79,-0.03,-0.13,0.8
18.894036054611206,0.87,-0.12,-0.17,0.89
18.898020029067993,0.97,-0.27,-0.17,1.02
18.908499240875244,1.15,-0.4,-0.03,1.21
18.918694019317627,1.22,-0.51,0.04,1.32
18.928362131118774,1.25,-0.6,0.1,1.39
18.94438910484314,1.26,-0.53,0.17,1.37
18.947999000549316,1.21,-0.39,0.15,1.28
18.95827293395996,1.11,-0.31,0.05,1.15
18.96875309944153,1.0,-0.32,-0.08,1.05
18.97809910774231,0.93,-0.4,-0.14,1.02
18.99413013458252,0.95,-0.39,-0.17,1.04
18.997796058654785,0.93,-0.38,-0.24,1.03
19.008112907409668,0.95,-0.36,-0.33,1.06
19.019370079040527,0.97,-0.23,-0.34,1.05
19.027987957000732,0.96,-0.07,-0.29,1.0
19.04454207420349,0.9,0.12,-0.12,0.91
19.04771614074707,0.83,0.19,-0.01,0.85
19.05794906616211,0.78,0.12,0.09,0.79
19.068746089935303,0.79,0.16,0.18,0.82
19.077831029891968,0.7,0.33,0.14,0.78
19.094548225402832,0.62,0.43,-0.01,0.75
19.097492218017578,0.65,0.36,0.0,0.74
19.10784602165222,0.69,0.29,-0.05,0.75
19.118884086608887,0.71,0.21,-0.11,0.74
19.127706050872803,0.67,0.03,-0.25,0.71
19.143919944763184,0.61,-0.15,-0.16,0.64
19.147284030914307,0.58,-0.18,0.19,0.63
19.157634019851685,0.45,-0.04,0.25,0.51
19.168839931488037,0.23,0.07,0.2,0.31
19.177433967590332,0.01,0.01,0.22,0.22
19.19407606124878,-0.07,-0.15,0.18,0.24
19.197165966033936,-0.06,-0.28,0.04,0.28
19.20756721496582,0.0,-0.36,-0.14,0.38
19.21937108039856,0.22,-0.4,-0.23,0.51
19.22735595703125,0.53,-0.44,-0.24,0.72
19.243844032287598,0.77,-0.45,-0.26,0.92
19.247043132781982,0.85,-0.4,-0.22,0.96
19.257312059402466,0.79,-0.24,-0.18,0.84
19.26765513420105,0.72,-0.08,-0.31,0.78
19.27954411506653,0.63,-0.01,-0.51,0.81
19.287108898162842,0.63,-0.04,-0.61,0.87
19.29709005355835,0.71,-0.19,-0.67,0.99
19.307250022888184,0.82,-0.33,-0.62,1.07
19.31745719909668,0.99,-0.45,-0.5,1.19
19.330316066741943,1.12,-0.4,-0.4,1.25
19.336941242218018,1.03,-0.25,-0.33,1.11
19.346949100494385,0.8,-0.21,-0.23,0.85
19.357033252716064,0.42,-0.07,-0.01,0.42
19.36763620376587,-0.13,0.15,0.16,0.25
19.380460023880005,-0.67,0.36,0.26,0.8
19.38681411743164,-1.12,0.47,0.35,1.26
19.396695137023926,-1.41,0.36,0.34,1.49
19.406991004943848,-1.48,0.07,0.28,1.5
19.41741704940796,-1.39,-0.22,0.34,1.44
19.431386947631836,-1.19,-0.34,0.44,1.31
19.436787128448486,-1.03,-0.27,0.52,1.18
19.44658899307251,-0.78,-0.2,0.26,0.84
19.456752061843872,-0.46,-0.13,0.39,0.61
19.467010974884033,-0.26,0.12,0.69,0.74
19.480842113494873,-0.27,0.44,0.66,0.83
19.486760139465332,-0.56,0.64,0.61,1.04
19.49639892578125,-1.02,0.67,0.65,1.38
19.50668716430664,-1.58,0.7,0.79,1.9
19.516836166381836,-2.07,0.65,0.72,2.28
19.530932903289795,-2.35,0.76,0.66,2.55
19.536356925964355,-2.49,0.78,0.68,2.69
19.546278953552246,-2.46,0.6,0.62,2.6
19.556409120559692,-2.37,0.38,0.61,2.47
19.566911220550537,-2.21,0.18,0.54,2.28
19.58048725128174,-2.07,0.01,0.4,2.1
19.586321115493774,-2.01,-0.17,0.5,2.07
19.596090078353882,-2.05,-0.24,0.51,2.12
19.60633111000061,-2.13,-0.25,0.56,2.21
19.616354942321777,-2.13,-0.26,0.47,2.19
19.62968111038208,-2.04,-0.18,0.3,2.06
19.63610005378723,-1.96,-0.11,0.12,1.96
19.646029949188232,-1.9,-0.13,-0.01,1.9
19.656126976013184,-1.83,-0.19,-0.15,1.84
19.66638708114624,-1.65,-0.26,-0.28,1.69
19.679705142974854,-1.5,-0.22,-0.36,1.55
19.68616509437561,-1.47,-0.03,-0.3,1.5
19.695824146270752,-1.56,0.2,-0.09,1.57
19.706017017364502,-1.64,0.29,0.1,1.66
19.716166973114014,-1.68,0.36,0.15,1.72
19.729900121688843,-1.77,0.34,0.24,1.81
19.73560404777527,-1.91,0.27,0.35,1.96
19.745678901672363,-2.0,0.26,0.42,2.06
19.755842208862305,-2.06,0.22,0.4,2.1
19.76589822769165,-2.07,0.04,0.4,2.1
19.778861045837402,-2.01,-0.14,0.27,2.03
19.78539514541626,-1.99,-0.14,0.19,2.0
19.795574188232422,-1.9,-0.08,0.14,1.9
19.805747032165527,-1.76,-0.09,0.1,1.76
19.815922021865845,-1.64,-0.06,0.09,1.64
19.83025813102722,-1.51,0.03,0.05,1.51
19.835434913635254,-1.45,0.09,0.04,1.45
19.8455331325531,-1.41,0.13,0.05,1.41
19.85549807548523,-1.3,0.11,0.01,1.3
19.865663051605225,-1.16,0.11,-0.03,1.16
19.878660202026367,-1.03,0.06,-0.06,1.03
19.885103225708008,-0.88,0.04,-0.08,0.88
19.895095109939575,-0.75,0.0,-0.08,0.75
19.90528106689453,-0.69,-0.06,-0.08,0.69
19.91543412208557,-0.66,-0.01,-0.08,0.66
19.928679943084717,-0.62,0.02,-0.09,0.62
19.93510913848877,-0.58,0.09,-0.14,0.6
19.945065021514893,-0.6,0.17,-0.14,0.63
19.95513916015625,-0.61,0.22,-0.14,0.66
19.965357065200806,-0.6,0.22,-0.13,0.65
19.978744983673096,-0.59,0.19,-0.14,0.63
19.98489999771118,-0.53,0.1,-0.11,0.55
19.99495005607605,-0.49,0.07,-0.09,0.5
20.005136966705322,-0.41,0.09,-0.08,0.42
20.01532006263733,-0.32,0.03,-0.11,0.33
20.028382062911987,-0.27,0.05,-0.09,0.28
20.0349440574646,-0.25,0.09,-0.06,0.27
20.044461250305176,-0.25,0.09,-0.06,0.27
20.054927110671997,-0.26,0.04,0.0,0.26
20.065203189849854,-0.28,0.03,0.07,0.29
20.078256130218506,-0.31,0.08,0.15,0.35
20.084908962249756,-0.26,0.13,0.18,0.34
20.094662189483643,-0.23,0.16,0.15,0.31
20.105541229248047,-0.16,0.17,0.13,0.26
20.11489725112915,-0.06,0.17,0.09,0.2
20.127440929412842,0.04,0.21,0.07,0.22
20.134954929351807,0.07,0.25,0.08,0.27
20.144464015960693,0.07,0.28,0.09,0.3
20.154628038406372,0.05,0.29,0.08,0.3
20.16487693786621,0.01,0.35,0.12,0.37
20.177072048187256,0.0,0.4,0.16,0.43
20.184865951538086,0.0,0.42,0.15,0.44
20.194387912750244,-0.02,0.45,0.14,0.47
20.204566955566406,-0.03,0.48,0.15,0.5
20.214834213256836,-0.04,0.54,0.12,0.55
20.22758913040161,-0.05,0.58,0.09,0.58
20.234913110733032,-0.01,0.62,0.1,0.62
20.24418020248413,-0.03,0.65,0.11,0.65
20.25440812110901,-0.1,0.66,0.1,0.67
20.264660120010376,-0.18,0.7,0.13,0.73
20.276927947998047,-0.28,0.69,0.17,0.76
20.28495502471924,-0.37,0.66,0.15,0.77
20.29411506652832,-0.44,0.72,0.18,0.86
20.304251194000244,-0.52,0.83,0.21,1.0
20.31439208984375,-0.56,0.9,0.18,1.07
20.326852083206177,-0.56,0.98,0.12,1.13
20.33457112312317,-0.56,1.16,0.05,1.28
20.343996047973633,-0.59,1.31,-0.01,1.43
20.354007244110107,-0.54,1.31,-0.02,1.41
20.364238023757935,-0.51,1.31,-0.03,1.4
20.377140045166016,-0.51,1.38,-0.01,1.47
20.38362407684326,-0.49,1.48,-0.04,1.55
20.393936157226562,-0.46,1.53,-0.09,1.6
20.40406322479248,-0.47,1.56,-0.17,1.63
20.41414213180542,-0.46,1.7,-0.32,1.78
20.426722049713135,-0.46,1.79,-0.33,1.87
20.43348217010498,-0.4,1.8,-0.47,1.9
20.44355607032776,-0.31,1.81,-0.34,1.86
20.45386791229248,-0.25,1.8,-0.29,1.84
20.463978052139282,-0.25,1.81,-0.25,1.84
20.47807002067566,-0.33,1.83,-0.13,1.86
20.483482122421265,-0.52,1.9,-0.03,1.97
20.493521213531494,-0.71,2.05,-0.03,2.16
20.5038161277771,-0.75,2.15,-0.05,2.27
20.513769149780273,-0.74,2.23,-0.11,2.35
20.528056144714355,-0.73,2.29,-0.07,2.4
20.5331449508667,-0.76,2.25,0.02,2.37
20.54350519180298,-0.84,2.15,0.18,2.31
20.55361318588257,-0.89,2.07,0.36,2.28
20.563805103302002,-0.93,1.96,0.57,2.24
20.577232122421265,-0.96,1.87,0.75,2.23
20.583014965057373,-1.01,1.86,0.9,2.29
20.59315299987793,-1.01,1.79,1.01,2.29
20.60354208946228,-1.03,1.68,1.02,2.21
20.61341094970703,-1.0,1.55,1.06,2.12
20.62669324874878,-0.87,1.41,0.87,1.87
20.63288116455078,-0.7,1.37,0.72,1.69
20.64319896697998,-0.58,1.38,0.58,1.6
20.65334701538086,-0.45,1.4,0.38,1.51
20.663459062576294,-0.42,1.42,0.29,1.5
20.67914605140686,-0.42,1.38,0.11,1.44
20.68287992477417,-0.42,1.32,0.0,1.38
20.69308090209961,-0.46,1.24,-0.02,1.32
20.703227043151855,-0.53,1.04,-0.07,1.16
20.71333599090576,-0.61,0.72,-0.21,0.96
20.72825312614441,-0.58,0.37,-0.1,0.69
20.732571125030518,-0.66,0.09,0.23,0.7
20.742922067642212,-0.79,0.36,0.29,0.91
20.75287389755249,-1.0,0.8,-0.09,1.28
20.763315200805664,-1.15,0.95,-0.35,1.53
20.776885986328125,-1.16,0.72,-0.31,1.4
20.78240704536438,-1.1,0.42,-0.28,1.21
20.79274010658264,-1.01,0.22,-0.35,1.09
20.8027560710907,-0.92,0.16,-0.35,0.99
20.81281614303589,-0.92,0.13,-0.33,0.98
20.82825517654419,-0.84,0.09,-0.47,0.96
20.832247018814087,-0.75,0.06,-0.58,0.95
20.842620134353638,-0.77,0.13,-0.55,0.95
20.852633953094482,-0.82,0.21,-0.58,1.02
20.86287808418274,-0.79,0.23,-0.73,1.09
20.87830400466919,-0.66,0.07,-0.58,0.88
20.882412910461426,-0.57,-0.15,-0.28,0.65
20.892405033111572,-0.58,-0.33,0.12,0.67
20.90251922607422,-0.63,-0.55,0.32,0.89
20.912577152252197,-0.48,-0.81,0.36,1.0
20.927990913391113,-0.19,-1.17,0.2,1.2
20.931921005249023,0.12,-1.44,0.1,1.44
20.942302227020264,0.43,-1.69,0.06,1.74
20.952127933502197,0.63,-1.83,0.06,1.93
20.962505102157593,0.62,-2.01,0.06,2.1
20.977947235107422,0.49,-2.1,0.03,2.15
20.981910228729248,0.4,-1.97,-0.02,2.01
20.9919171333313,0.39,-1.79,-0.02,1.83
21.002085208892822,0.4,-1.81,0.02,1.85
21.01171612739563,0.49,-2.02,0.02,2.07
21.027859210968018,0.6,-2.16,-0.11,2.24
21.031623125076294,0.71,-2.27,-0.09,2.38
21.042023181915283,0.72,-2.29,0.0,2.4
21.052152156829834,0.63,-2.17,0.11,2.26
21.062352180480957,0.46,-2.15,0.17,2.2
21.07851505279541,0.28,-2.26,0.19,2.28
21.081545114517212,0.17,-2.32,0.21,2.33
21.0917911529541,0.12,-2.3,0.19,2.31
21.10294508934021,0.2,-2.2,0.1,2.21
21.11246395111084,0.26,-2.03,-0.06,2.04
21.126976013183594,0.3,-1.9,-0.15,1.92
21.131224155426025,0.37,-1.78,-0.33,1.84
21.141770124435425,0.48,-1.66,-0.46,1.78
21.152037143707275,0.59,-1.57,-0.5,1.75
21.161417961120605,0.53,-1.49,-0.5,1.65
21.17921209335327,0.38,-1.31,-0.37,1.41
21.18137001991272,0.29,-1.23,-0.27,1.29
21.191471099853516,0.32,-1.33,-0.25,1.39
21.202136993408203,0.35,-1.49,-0.18,1.54
21.21117401123047,0.35,-1.6,-0.21,1.65
21.228912115097046,0.29,-1.59,-0.2,1.62
21.231117248535156,0.24,-1.51,-0.15,1.53
21.241509914398193,0.22,-1.37,-0.12,1.39
21.252231121063232,0.26,-1.26,-0.09,1.28
21.261733055114746,0.28,-1.14,0.0,1.17
21.279227018356323,0.26,-1.03,0.07,1.06
21.28079319000244,0.23,-0.91,0.12,0.94
21.291203022003174,0.18,-0.86,0.08,0.88
21.3020339012146,0.21,-0.86,0.07,0.88
21.310998916625977,0.27,-0.81,0.02,0.85
21.32756209373474,0.33,-0.73,-0.06,0.8
21.33071804046631,0.34,-0.65,-0.08,0.73
21.34105110168457,0.31,-0.6,-0.14,0.68
21.352406978607178,0.29,-0.51,-0.14,0.6
21.36135721206665,0.24,-0.35,-0.2,0.46
21.378212928771973,0.19,-0.26,-0.26,0.41
21.380615234375,0.13,-0.22,-0.22,0.33
21.390971183776855,0.05,-0.2,-0.16,0.26
21.40207004547119,-0.02,-0.16,-0.13,0.2
21.411009073257446,-0.06,-0.16,-0.24,0.29
21.427892208099365,-0.04,-0.18,-0.32,0.36
21.430429935455322,-0.05,-0.15,-0.36,0.39
21.4408221244812,-0.13,-0.09,-0.38,0.41
21.450499057769775,-0.2,-0.04,-0.36,0.41
21.46116304397583,-0.21,0.02,-0.31,0.37
21.479008197784424,-0.19,0.1,-0.28,0.35
21.480238914489746,-0.18,0.12,-0.26,0.33
21.490599155426025,-0.17,0.16,-0.2,0.3
21.500457048416138,-0.21,0.19,-0.1,0.3
21.51101303100586,-0.22,0.23,-0.05,0.32
21.527520179748535,-0.29,0.26,0.04,0.39
21.530083179473877,-0.36,0.3,0.12,0.48
21.540462970733643,-0.45,0.31,0.21,0.58
21.550321102142334,-0.51,0.32,0.33,0.68
21.56031107902527,-0.52,0.32,0.47,0.77
21.578164100646973,-0.51,0.29,0.54,0.79
21.5799400806427,-0.44,0.29,0.55,0.76
21.59021520614624,-0.35,0.32,0.49,0.68
21.600115060806274,-0.29,0.38,0.43,0.64
21.61075210571289,-0.25,0.45,0.4,0.65
21.62769317626953,-0.26,0.47,0.36,0.64
21.629820108413696,-0.3,0.52,0.33,0.68
21.640230178833008,-0.36,0.57,0.29,0.73
21.649895191192627,-0.43,0.58,0.28,0.77
21.660126209259033,-0.49,0.54,0.21,0.75
21.6776762008667,-0.52,0.5,0.21,0.75
21.679768085479736,-0.54,0.45,0.19,0.72
21.690007209777832,-0.58,0.43,0.16,0.73
21.699836254119873,-0.63,0.4,0.17,0.76
21.710171222686768,-0.7,0.38,0.17,0.81
21.727773189544678,-0.84,0.39,0.18,0.94
21.729352951049805,-0.95,0.35,0.22,1.03
21.739787101745605,-1.04,0.35,0.2,1.11
21.75009298324585,-1.13,0.33,0.24,1.2
21.76029109954834,-1.17,0.34,0.31,1.25
21.778670072555542,-1.22,0.34,0.34,1.31
21.77934217453003,-1.29,0.34,0.32,1.37
21.789693117141724,-1.35,0.4,0.3,1.43
21.79940700531006,-1.43,0.46,0.3,1.53
21.809819221496582,-1.51,0.46,0.3,1.6
21.828936100006104,-1.53,0.41,0.32,1.61
21.82969617843628,-1.61,0.42,0.36,1.7
21.839478969573975,-1.69,0.42,0.41,1.78
21.849287033081055,-1.8,0.35,0.47,1.89
21.860050201416016,-1.86,0.22,0.5,1.93
21.88056707382202,-1.87,0.11,0.5,1.93
21.881563186645508,-1.91,0.07,0.49,1.97
21.889277935028076,-1.94,0.07,0.48,1.99
21.899240970611572,-1.89,0.11,0.36,1.92
21.909858226776123,-1.83,0.07,0.2,1.84
21.930182933807373,-1.8,0.09,0.18,1.81
21.93093705177307,-1.79,0.16,0.09,1.79
21.939316034317017,-1.7,0.11,-0.05,1.7
21.94900894165039,-1.58,-0.01,-0.16,1.58
21.95982313156128,-1.28,-0.18,-0.47,1.37
21.979629039764404,-0.92,-0.35,-0.86,1.3
21.98038911819458,-0.63,-0.19,-1.04,1.23
21.989058017730713,-0.58,0.23,-0.91,1.1
21.998909950256348,-0.64,0.79,-0.68,1.22
22.00948715209961,-0.77,1.15,-0.39,1.43
22.02940011024475,-0.9,1.18,-0.01,1.48
22.030144214630127,-0.97,0.96,0.54,1.46
22.038758039474487,-0.87,0.67,0.96,1.45
22.04868507385254,-0.74,0.31,0.97,1.25
22.05891704559326,-0.8,0.03,0.89,1.19
22.0785870552063,-1.05,-0.13,0.82,1.33
22.079325199127197,-1.19,-0.28,0.6,1.36
22.088528156280518,-1.26,-0.43,0.53,1.43
22.09863305091858,-1.4,-0.5,0.47,1.55
22.108922958374023,-1.43,-0.53,0.38,1.57
22.129899978637695,-1.51,-0.46,0.44,1.63
22.13066601753235,-1.63,-0.4,0.42,1.73
22.138495922088623,-1.67,-0.46,0.38,1.77
22.14831304550171,-1.75,-0.48,0.33,1.84
22.158574104309082,-1.87,-0.45,0.24,1.93
22.179177045822144,-1.94,-0.51,0.09,2.0
22.17992115020752,-1.99,-0.56,-0.1,2.06
22.188504219055176,-2.08,-0.52,-0.23,2.15
22.198252201080322,-2.1,-0.44,-0.42,2.18
22.208993911743164,-1.91,-0.41,-0.57,2.03
22.229279041290283,-1.68,-0.52,-0.7,1.89
22.230037212371826,-1.54,-0.49,-0.68,1.75
22.238173961639404,-1.48,-0.37,-0.69,1.67
22.248175144195557,-1.51,-0.29,-0.78,1.72
22.258359909057617,-1.5,-0.2,-0.78,1.7
22.27998113632202,-1.45,-0.08,-0.8,1.65
22.28065299987793,-1.38,-0.08,-0.82,1.6
22.28793716430664,-1.38,-0.06,-0.78,1.58
22.29787302017212,-1.36,0.02,-0.72,1.53
22.30819320678711,-1.32,-0.07,-0.67,1.48
22.328743934631348,-1.19,-0.21,-0.71,1.4
22.329505920410156,-1.02,-0.32,-0.85,1.36
22.337961196899414,-0.88,-0.35,-0.89,1.29
22.347795963287354,-0.67,-0.34,-1.07,1.3
22.357943058013916,-0.47,-0.34,-1.2,1.33
22.37868022918701,-0.4,-0.23,-1.08,1.17
22.37941598892212,-0.38,0.03,-1.01,1.07
22.388017177581787,-0.34,0.28,-0.9,1.0
22.397830963134766,-0.23,0.4,-0.58,0.74
22.408222198486328,0.0,0.46,-0.41,0.61
22.42978310585022,0.33,0.43,-0.24,0.59
22.430525064468384,0.65,0.4,-0.01,0.76
22.437650203704834,0.85,0.33,0.21,0.93
22.447535037994385,1.07,0.28,0.38,1.16
22.45781707763672,1.25,0.23,0.52,1.37
22.47905921936035,1.47,0.11,0.6,1.59
22.47982692718506,1.79,0.06,0.64,1.9
22.48757314682007,2.19,0.14,0.63,2.28
22.497376918792725,2.51,0.25,0.63,2.59
22.508038997650146,2.87,0.22,0.6,2.94
22.52884292602539,3.15,0.13,0.67,3.22
22.52951407432556,3.33,0.06,0.67,3.39
22.53721809387207,3.47,0.06,0.47,3.5
22.547314167022705,3.52,0.1,0.23,3.52
22.557266235351562,3.48,0.1,0.02,3.48
22.567688941955566,3.44,-0.07,-0.06,3.44
22.57953119277954,3.32,-0.19,-0.1,3.32
22.587106227874756,3.17,-0.25,-0.13,3.18
22.596988201141357,3.02,-0.28,-0.13,3.03
22.60769009590149,2.92,-0.27,-0.07,2.93
22.617712020874023,2.84,-0.2,-0.06,2.84
22.631218910217285,2.72,-0.16,-0.06,2.72
22.637042999267578,2.53,-0.18,0.02,2.53
22.646913051605225,2.35,-0.2,0.1,2.36
22.65744924545288,2.14,-0.2,0.12,2.15
22.66741418838501,1.87,-0.17,0.21,1.88
22.679930210113525,1.61,-0.1,0.2,1.62
22.686914920806885,1.44,-0.05,0.04,1.44
22.696811199188232,1.34,-0.06,-0.1,1.34
22.706974029541016,1.3,-0.03,-0.07,1.3
22.71733808517456,1.25,0.05,-0.05,1.25
22.730870246887207,1.14,0.13,-0.17,1.15
22.73687505722046,0.97,0.17,-0.14,0.99
22.74663805961609,0.82,0.15,-0.06,0.83
22.756818056106567,0.67,0.17,-0.09,0.69
22.767075061798096,0.61,0.18,-0.14,0.65
22.78043794631958,0.59,0.19,-0.19,0.64
22.786452054977417,0.52,0.24,-0.27,0.63
22.796320915222168,0.41,0.24,-0.29,0.55
22.806616067886353,0.39,0.27,-0.31,0.56
22.816914081573486,0.4,0.27,-0.33,0.58
22.83010506629944,0.32,0.28,-0.3,0.52
22.83668613433838,0.27,0.25,-0.23,0.43
22.846235036849976,0.22,0.24,-0.1,0.34
22.857043027877808,0.18,0.27,0.05,0.32
22.86639904975891,0.21,0.27,0.03,0.34
22.87795400619507,0.19,0.23,-0.04,0.3
22.885903120040894,0.13,0.23,-0.05,0.26
22.896125078201294,0.01,0.2,-0.07,0.21
22.906177043914795,-0.06,0.19,-0.07,0.21
22.915648937225342,-0.09,0.2,-0.04,0.22
22.930304050445557,-0.1,0.21,-0.02,0.23
22.936140060424805,-0.14,0.14,-0.01,0.19
22.946072101593018,-0.2,0.11,0.01,0.22
22.956298112869263,-0.24,0.11,0.1,0.28
22.96672821044922,-0.26,0.12,0.12,0.31
22.979120016098022,-0.3,0.14,0.05,0.33
22.985692977905273,-0.35,0.14,0.06,0.38
22.99613904953003,-0.29,0.12,0.09,0.32
23.006038188934326,-0.18,0.09,0.06,0.21
23.015947103500366,-0.13,0.08,0.06,0.16
23.02836012840271,-0.15,0.14,0.1,0.22
23.035730123519897,-0.25,0.17,0.12,0.32
23.045660972595215,-0.33,0.18,0.11,0.39
23.0559139251709,-0.35,0.13,0.08,0.38
23.066215991973877,-0.27,0.04,0.05,0.27
23.079051971435547,-0.15,-0.01,0.06,0.16
23.085433959960938,-0.15,-0.02,0.05,0.15
23.09581995010376,-0.21,-0.04,0.1,0.23
23.105624198913574,-0.21,-0.09,0.01,0.22
23.1159930229187,-0.21,-0.11,0.08,0.25
23.129740238189697,-0.25,-0.09,0.14,0.3
23.135342121124268,-0.26,-0.12,0.05,0.29
23.1455020904541,-0.23,-0.18,0.02,0.29
23.15555715560913,-0.23,-0.25,0.07,0.34
23.16588306427002,-0.22,-0.36,0.16,0.45
23.180071115493774,-0.24,-0.41,0.23,0.52
23.185153007507324,-0.27,-0.43,0.21,0.54
23.19558095932007,-0.25,-0.5,0.25,0.61
23.205465078353882,-0.18,-0.56,0.35,0.68
23.21598505973816,-0.11,-0.61,0.36,0.71
23.22935914993286,-0.05,-0.64,0.38,0.74
23.235031127929688,-0.03,-0.66,0.3,0.72
23.24503207206726,-0.03,-0.66,0.15,0.67
23.255449056625366,-0.05,-0.73,0.06,0.73
23.26561713218689,-0.12,-0.8,0.08,0.81
23.280685901641846,-0.14,-0.81,0.1,0.82
23.2850661277771,-0.09,-0.84,0.08,0.84
23.29505491256714,-0.05,-0.91,0.08,0.91
23.305208206176758,-0.08,-1.0,0.09,1.0
23.315200090408325,-0.07,-1.05,0.03,1.05
23.330249071121216,0.0,-1.12,-0.02,1.12
23.334944248199463,0.0,-1.2,-0.03,1.2
23.344868183135986,-0.04,-1.28,0.05,1.28
23.355085134506226,0.0,-1.3,0.06,1.3
23.36479616165161,0.01,-1.32,-0.03,1.32
23.378595113754272,-0.06,-1.42,-0.05,1.42
23.38499402999878,-0.17,-1.53,-0.05,1.54
23.3947970867157,-0.27,-1.62,0.02,1.64
23.40498399734497,-0.29,-1.72,0.11,1.74
23.414950132369995,-0.22,-1.74,0.1,1.75
23.42827320098877,-0.12,-1.7,0.02,1.7
23.435161113739014,-0.09,-1.61,-0.01,1.61
23.44432020187378,0.0,-1.5,0.08,1.5
23.454710960388184,0.09,-1.32,0.1,1.32
23.464444160461426,0.0,-1.12,0.02,1.12
23.47778010368347,-0.11,-0.94,-0.06,0.94
23.48512601852417,-0.2,-0.85,-0.28,0.91
23.49456214904785,-0.17,-0.82,-0.44,0.94
23.504624128341675,-0.13,-0.84,-0.54,1.0
23.514480113983154,-0.16,-0.82,-0.65,1.05
23.528611183166504,-0.26,-0.72,-0.53,0.93
23.53504514694214,-0.29,-0.53,-0.5,0.78
23.544021129608154,-0.28,-0.26,-0.56,0.67
23.55462408065796,-0.23,-0.12,-0.51,0.57
23.56430196762085,-0.06,-0.1,-0.49,0.5
23.57834005355835,0.11,-0.24,-0.58,0.63
23.585000038146973,0.18,-0.24,-0.67,0.73
23.594313144683838,0.14,-0.08,-0.77,0.78
23.60424518585205,0.1,0.05,-0.79,0.79
23.614015102386475,0.06,0.05,-0.81,0.81
23.62887716293335,-0.01,-0.02,-0.71,0.71
23.63508415222168,-0.02,-0.12,-0.63,0.64
23.64400815963745,0.01,-0.16,-0.6,0.62
23.654308080673218,0.04,-0.17,-0.65,0.67
23.664353132247925,-0.02,-0.11,-0.67,0.67
23.67943525314331,-0.1,0.0,-0.57,0.57
23.68362307548523,-0.21,0.01,-0.62,0.65
23.694021224975586,-0.33,-0.05,-0.69,0.76
23.704018115997314,-0.39,-0.03,-0.66,0.76
23.71383309364319,-0.38,0.03,-0.65,0.75
23.72933602333069,-0.36,0.03,-0.54,0.64
23.73354721069336,-0.35,0.04,-0.29,0.45
23.743757247924805,-0.37,0.19,0.06,0.42
23.753969192504883,-0.41,0.34,0.15,0.55
23.76344108581543,-0.31,0.34,0.06,0.46
23.779505252838135,-0.13,0.21,0.12,0.27
23.78317403793335,0.0,0.01,0.12,0.12
23.793764114379883,-0.06,-0.15,0.0,0.16
23.80366611480713,-0.27,-0.21,0.0,0.34
23.813660144805908,-0.63,-0.27,0.15,0.7
23.829340934753418,-1.07,-0.3,0.42,1.18
23.833218097686768,-1.29,-0.32,0.73,1.51
23.843290090560913,-1.48,-0.28,0.84,1.72
23.853670120239258,-1.41,-0.24,0.89,1.68
23.863343238830566,-1.29,-0.19,0.84,1.55
23.878589153289795,-1.09,-0.18,0.63,1.27
23.88300108909607,-0.84,-0.15,0.35,0.92
23.893132209777832,-0.67,0.03,0.12,0.68
23.903389930725098,-0.67,0.26,0.11,0.72
23.913300037384033,-0.75,0.54,0.37,0.99
23.928096055984497,-0.72,0.8,0.57,1.21
23.932969093322754,-0.59,1.02,0.59,1.31
23.942965984344482,-0.46,1.21,0.49,1.38
23.95325994491577,-0.38,1.38,0.44,1.49
23.96294116973877,-0.24,1.55,0.38,1.61
23.977752208709717,-0.13,1.62,0.1,1.62
23.982782125473022,-0.09,1.6,-0.16,1.61
23.992844104766846,0.01,1.56,-0.37,1.6
24.00292706489563,0.07,1.56,-0.5,1.63
24.01295304298401,0.19,1.66,-0.6,1.77
24.028799057006836,0.3,1.78,-0.67,1.92
24.032592058181763,0.35,1.91,-0.52,2.01
24.042640209197998,0.32,2.1,-0.33,2.14
24.053060054779053,0.31,2.34,-0.25,2.37
24.06268811225891,0.28,2.49,-0.09,2.5
24.07871913909912,0.24,2.51,0.13,2.52
24.08242893218994,0.26,2.42,0.19,2.44
24.092812061309814,0.28,2.29,0.21,2.31
24.102670192718506,0.28,2.1,0.22,2.12
24.11260414123535,0.28,1.91,0.15,1.93
24.128794193267822,0.2,1.71,0.08,1.72
24.132501125335693,0.08,1.55,-0.04,1.55
24.1426260471344,-0.02,1.43,-0.14,1.43
24.152597904205322,-0.05,1.34,-0.27,1.36
24.16238307952881,-0.08,1.22,-0.46,1.3
24.17831516265869,-0.11,1.08,-0.5,1.19
24.18210792541504,-0.12,0.97,-0.46,1.08
24.19229793548584,-0.13,0.9,-0.42,1.0
24.202238082885742,-0.13,0.87,-0.4,0.96
24.212337970733643,-0.14,0.89,-0.38,0.97
24.227970123291016,-0.11,0.88,-0.26,0.92
24.232067108154297,-0.08,0.8,-0.15,0.81
24.241962909698486,-0.12,0.82,-0.03,0.82
24.25221610069275,-0.15,0.86,-0.01,0.87
24.2622652053833,-0.2,0.83,-0.04,0.85
24.278423070907593,-0.32,0.75,0.03,0.81
24.2818500995636,-0.37,0.7,0.06,0.79
24.291929244995117,-0.42,0.62,0.02,0.74
24.302221059799194,-0.46,0.54,0.04,0.71
24.3120059967041,-0.51,0.49,0.05,0.7
24.328598022460938,-0.54,0.37,0.01,0.65
24.331811904907227,-0.47,0.35,-0.01,0.58
24.34174609184265,-0.31,0.38,-0.07,0.49
24.352277040481567,-0.12,0.34,-0.18,0.4
24.36178493499756,0.0,0.32,-0.12,0.34
24.378530025482178,0.1,0.37,-0.05,0.38
24.381420135498047,0.1,0.43,-0.07,0.44
24.39159917831421,0.02,0.46,-0.12,0.47
24.402254104614258,-0.08,0.48,-0.04,0.48
24.411776065826416,-0.16,0.43,0.01,0.45
24.428452968597412,-0.2,0.38,-0.02,0.42
24.431352138519287,-0.2,0.32,-0.05,0.38
24.4414701461792,-0.19,0.23,-0.06,0.3
24.452255249023438,-0.26,0.18,-0.01,0.31
24.461528062820435,-0.32,0.22,0.02,0.38
24.478556156158447,-0.39,0.28,-0.04,0.48
24.48101305961609,-0.42,0.28,-0.16,0.52
24.491328239440918,-0.39,0.21,-0.24,0.5
24.502388954162598,-0.31,0.17,-0.3,0.46
24.51150417327881,-0.26,0.13,-0.29,0.41
24.528918027877808,-0.25,0.21,-0.22,0.39
24.531053066253662,-0.13,0.33,-0.22,0.41
24.54113006591797,0.01,0.41,-0.19,0.45
24.55228090286255,0.06,0.42,-0.22,0.47
24.561227083206177,-0.01,0.35,-0.27,0.44
24.578327178955078,-0.16,0.33,-0.25,0.44
24.580880165100098,-0.24,0.38,-0.19,0.48
24.590970039367676,-0.24,0.45,-0.11,0.52
24.602142095565796,-0.2,0.43,-0.05,0.47
24.61083221435547,-0.15,0.38,0.07,0.41
24.628210067749023,-0.11,0.28,0.19,0.35
24.630770206451416,-0.07,0.23,0.27,0.36
24.640830039978027,-0.05,0.21,0.28,0.35
24.65172290802002,-0.16,0.21,0.24,0.35
24.660653114318848,-0.3,0.17,0.18,0.38
24.678261041641235,-0.37,0.1,0.06,0.38
24.680334091186523,-0.37,0.08,-0.05,0.38
24.6907000541687,-0.35,0.07,-0.06,0.36
24.700867176055908,-0.27,0.09,-0.05,0.28
24.712403059005737,-0.28,0.13,-0.07,0.31
24.720407962799072,-0.3,0.13,-0.07,0.33
24.730436086654663,-0.29,0.13,0.04,0.32
24.740499019622803,-0.22,0.14,0.12,0.28
24.75065517425537,-0.2,0.18,0.1,0.28
24.763598918914795,-0.21,0.19,0.1,0.3
24.770426034927368,-0.19,0.15,0.2,0.31
24.780031204223633,-0.19,0.15,0.22,0.32
24.790252208709717,-0.19,0.18,0.13,0.29
24.800164222717285,-0.22,0.16,0.04,0.27
24.81287908554077,-0.24,0.08,0.08,0.26
24.8201961517334,-0.14,0.09,0.21,0.26
24.8302321434021,-0.02,0.18,0.24,0.3
24.840383052825928,0.01,0.27,0.13,0.29
24.85034203529358,-0.06,0.25,0.03,0.25
24.86445903778076,-0.15,0.21,-0.03,0.25
24.87035894393921,-0.2,0.15,-0.05,0.25
24.880030155181885,-0.17,0.14,-0.07,0.23
24.890342235565186,-0.19,0.15,-0.11,0.26
24.900156021118164,-0.24,0.2,-0.14,0.34
24.91408109664917,-0.31,0.23,-0.15,0.41
24.919769048690796,-0.31,0.23,-0.14,0.41
24.929903984069824,-0.3,0.16,-0.08,0.34
24.940160036087036,-0.32,0.09,-0.05,0.33
24.950046062469482,-0.27,-0.01,-0.05,0.27
24.963979244232178,-0.16,-0.08,-0.1,0.2
24.9699969291687,-0.09,-0.15,-0.15,0.23
24.97986602783203,-0.03,-0.12,-0.18,0.21
24.9898099899292,-0.04,-0.05,-0.28,0.28
24.999980926513672,-0.08,0.04,-0.33,0.34
25.013891220092773,-0.16,0.09,-0.28,0.33
25.01984405517578,-0.24,0.15,-0.19,0.34
25.02977418899536,-0.25,0.19,-0.16,0.35
25.039632081985474,-0.25,0.24,-0.16,0.38
25.049871921539307,-0.29,0.21,-0.17,0.39
25.064559936523438,-0.27,0.22,-0.16,0.38
25.0697181224823,-0.23,0.24,-0.17,0.37
25.079437017440796,-0.21,0.23,-0.2,0.37
25.089648246765137,-0.11,0.24,-0.22,0.34
25.099623203277588,-0.08,0.25,-0.24,0.35
25.11314606666565,-0.08,0.22,-0.19,0.3
25.119500160217285,-0.11,0.18,-0.07,0.22
25.12935709953308,-0.23,0.18,-0.04,0.29
25.139385223388672,-0.36,0.16,-0.1,0.4
25.149412155151367,-0.36,0.05,-0.18,0.4
25.163476943969727,-0.36,-0.03,-0.24,0.43
25.169278144836426,-0.34,-0.07,-0.35,0.49
25.1792631149292,-0.31,-0.11,-0.47,0.57
25.189505100250244,-0.21,-0.07,-0.48,0.52
25.1993350982666,-0.12,0.0,-0.37,0.38
25.21333122253418,-0.12,0.05,-0.17,0.21
25.219074249267578,-0.17,0.09,0.05,0.19
25.22911500930786,-0.16,0.19,0.24,0.34
25.239246129989624,-0.18,0.29,0.29,0.44
25.249223232269287,-0.14,0.28,0.26,0.4
25.263516902923584,-0.09,0.19,0.19,0.28
25.26873207092285,-0.1,0.23,0.06,0.25
25.278860092163086,-0.16,0.16,-0.03,0.22
25.28917121887207,-0.23,0.09,-0.13,0.27
25.29894495010376,-0.22,0.1,-0.18,0.3
25.31381607055664,-0.17,0.13,-0.13,0.25
25.31841802597046,-0.14,0.15,0.01,0.2
25.328712940216064,-0.15,0.15,0.18,0.27
25.338714122772217,-0.13,0.16,0.28,0.34
25.349003076553345,-0.17,0.22,0.29,0.4
25.363306045532227,-0.23,0.27,0.19,0.4
25.368510246276855,-0.2,0.25,0.09,0.33
25.378456115722656,-0.13,0.23,0.06,0.27
25.3888840675354,-0.12,0.21,0.04,0.24
25.398620128631592,-0.15,0.21,-0.04,0.26
25.413159132003784,-0.21,0.17,-0.56,0.62
25.41978693008423,-0.29,0.05,-0.32,0.43
25.428311109542847,-0.28,0.01,0.3,0.41
25.438518047332764,-0.19,0.2,0.33,0.43
25.44839906692505,-0.23,0.28,0.23,0.42
25.46186399459839,-0.25,0.32,0.12,0.42

